time,seconds_elapsed,z,y,x
1620232220422380500,0.020380615234375,1.0558218893408775,1.8143954008147118,-1.165803774538636
1620232220432384500,0.030384521484375,1.0733026009738444,1.9710060584574938,-2.0037799085512757
1620232220442388500,0.040388427734375,0.8036568080425261,3.2538933668926355,-1.588862013593316
1620232220452392700,0.050392822265625,0.41480186736285685,3.5717157462328673,-1.4205065576210618
1620232220462396200,0.060396240234375,0.2597533444702625,4.238034167857468,-0.7784358575463295
1620232220472400100,0.070400146484375,0.5733294645428657,5.843613799756765,0.27709435537159444
1620232220482404400,0.080404296875,0.8480652740895748,7.215368601429462,1.4852297896832227
1620232220492407000,0.090406982421875,1.2137357385367153,8.222540149369836,2.43516641549021
1620232220502411000,0.100410888671875,1.4364502689450978,8.151503788638115,2.260575864520669
1620232220512415200,0.110415283203125,1.3589748150765895,7.367789698427915,1.3641425731033086
1620232220522419200,0.120419189453125,1.200511515304446,7.2425015230268235,0.9220195680946112
1620232220532423000,0.1304228515625,1.1241314554572104,7.662688006037473,0.8133949427247047
1620232220542427100,0.14042724609375,1.177001460379362,7.222358898708224,1.3167489537656307
1620232220552431000,0.15043115234375,1.74241942114532,6.505449230748415,1.7870266246348618
1620232220562434300,0.160434326171875,3.0961516593933105,6.100554424893856,2.1893355056494475
1620232220572438300,0.170438232421875,4.301427028098702,5.433444852891564,3.68525210904181
1620232220582442000,0.18044189453125,4.465201878282428,5.016346983546018,4.835163317921757
1620232220592446200,0.1904462890625,3.3494273322820662,5.155112480157613,4.2036978907525535
1620232220602450200,0.2004501953125,1.3408733411967753,4.676970651784539,2.7176047622382637
1620232220612454100,0.2104541015625,-0.9548638530761003,3.8521319395035505,1.323583768221736
1620232220622458000,0.2204580078125,-2.5017267998516557,2.9814596968084572,0.5667109231859445
1620232220632461000,0.2304609375,-2.4021605102062225,1.2254109787613152,0.44996611972451206
1620232220642465000,0.240465087890625,-1.3286381290018558,-0.1669204547330737,0.46573009056746956
1620232220652469200,0.25046923828125,-0.537162757140398,-0.8331471064209938,0.43680853198766706
1620232220662473200,0.26047314453125,-0.6383230379790067,-1.5238476896300912,0.31294775904119015
1620232220672477000,0.270476806640625,-1.6610028284355998,-2.653360545864701,0.006728431472182273
1620232220682481200,0.280481201171875,-3.2298762392282483,-3.6019863813340662,-0.35996377723813056
1620232220692485000,0.290485107421875,-4.696702357214689,-4.438762784168124,-1.0339853205859662
1620232220702489000,0.300489013671875,-5.34583437397778,-5.267137853881716,-2.9816712937325236
1620232220712492300,0.3104921875,-5.047696061533689,-6.366068817108869,-5.650069834253191
1620232220722496000,0.32049609375,-4.337314626298845,-7.84591223757863,-7.330365684440731
1620232220732500000,0.3305,-2.857459807652235,-8.297177164942026,-7.536789005261659
1620232220742504200,0.340504150390625,-1.1660673939108848,-7.337845811063051,-7.811470454272627
1620232220752508200,0.350508056640625,-0.9924556248456239,-6.017751638522744,-6.589426321595907
1620232220762512100,0.36051220703125,-1.8043442546606063,-5.197857396906614,-4.944296477335691
1620232220772516000,0.37051611328125,-2.0303882217526437,-5.566199710911512,-3.8480794492423533
1620232220782519000,0.38051904296875,-0.14314093521684407,-6.857368817740678,-3.958544149520993
1620232220792523300,0.390523193359375,2.8302257637679573,-7.443693372935056,-5.165812153348327
1620232220802527200,0.40052734375,4.292144528229534,-7.081082296058535,-6.874763604655861
1620232220812531200,0.41053125,3.7077746142342685,-6.766583215922116,-8.267513263562321
1620232220822535000,0.420534912109375,1.3774921762809156,-5.903558273109794,-8.360317219465971
1620232220832539100,0.4305390625,-0.5075064545452594,-4.947442958667874,-6.97321988723278
1620232220842543000,0.440543212890625,-0.9568938975989818,-4.25461062412709,-4.685331068372726
1620232220852547000,0.450547119140625,6.213482884937524,-2.046613088105619,-3.0491601911157367
1620232220862550000,0.460550048828125,12.424591441959143,-0.8000845755789429,-0.7348433840572833
1620232220872554000,0.470553955078125,9.936169529360532,-0.21582506315559147,1.2434651063680648
1620232220882558200,0.48055810546875,8.289346909707785,2.475994684962928,2.33399824360609
1620232220892562200,0.490562255859375,6.6728270738601685,3.1119442718088624,4.423389273947477
1620232220902566100,0.500566162109375,6.2099307454138994,2.516540045841038,4.8368894110620015
1620232220912570000,0.510570068359375,6.200614051014185,2.0788255049243567,5.807600237089395
1620232220922574000,0.520573974609375,6.911211467087268,-0.1337540981903672,11.282160944223403
1620232220932577000,0.530576904296875,-1.0254396105587482,-0.33293110114485025,11.591019972646237
1620232220942581200,0.540581298828125,-8.680726400429009,3.2383477149754762,2.5000135661929845
1620232220952585200,0.550585205078125,-11.279152994579077,4.390539728268981,-8.008897398689388
1620232220962589000,0.5605888671875,-13.021371924716233,-1.7993980304300785,-7.239439797368645
1620232220972593200,0.57059326171875,-8.456156597542762,-2.1012746526196597,-5.890132389825582
1620232220982597000,0.58059716796875,-2.5719991904735564,-2.3939129063427447,-5.71661531330645
1620232220992601000,0.59060107421875,1.712379087668657,-4.537627063024043,-6.031238896605372
1620232221002605300,0.600605224609375,3.9988381659865375,-4.876296707820892,-6.105680097344518
1620232221012608000,0.61060791015625,4.208268851929903,-3.609996377049386,-5.608332048720121
1620232221022612000,0.620612060546875,3.7561189584255215,-2.142679260675609,-2.3176439056545495
1620232221032616200,0.6306162109375,2.878155389678478,-1.9294190795719623,1.5065677612662314
1620232221042620200,0.6406201171875,2.518274614548683,0.056635787196457385,3.7967017287045715
1620232221052624100,0.6506240234375,-1.1802432187795637,3.4322365483939645,3.4501690954476594
1620232221062628000,0.660628173828125,-2.6332640987753866,2.552159933015704,3.1121693127363916
1620232221072632000,0.670632080078125,-3.828995978587866,1.5738289873734115,4.034005925479531
1620232221082635300,0.68063525390625,-2.8887311442285775,0.9691492757990956,3.874016439053416
1620232221092639200,0.69063916015625,-0.9326777402311563,2.7195675867438314,2.6569699685335157
1620232221102643000,0.700642822265625,-0.38745325718820095,3.138554630836844,1.735656502881646
1620232221112647200,0.710647216796875,0.8807914856493473,1.6538848131239414,-0.4850000237047672
1620232221122651100,0.720651123046875,3.5565637698084114,0.7679922049432992,-3.174841165226698
1620232221132655000,0.730655029296875,4.239461570312082,0.806038734742999,-4.345846015539765
1620232221142659000,0.7406591796875,2.1185598416805265,1.4693144276708363,-3.9023873780131337
1620232221152662000,0.750662109375,-1.2292121246099472,2.1711679807960986,-2.3957547348171473
1620232221162666000,0.760666015625,-3.050118807014823,3.6047809804886577,0.37465105876028537
1620232221172670200,0.770670166015625,-3.713439508128166,5.63690640129745,1.791183159792423
1620232221182674200,0.780674072265625,-4.0860079153954985,5.966897649598121,0.2782809348076582
1620232221192678100,0.79067822265625,-4.103334897771478,4.265526278156042,-3.667881287524104
1620232221202682000,0.80068212890625,-2.9892753389954567,2.6703707173764704,-6.741915807655453
1620232221212686000,0.81068603515625,-1.1674585560083388,0.754135529026389,-7.039808036383986
1620232221222690000,0.82068994140625,1.8887889630198478,0.56463060978055,-6.464895102041959
1620232221232693200,0.830693359375,3.4649899402216073,2.241343340784311,-4.004247916075587
1620232221242697200,0.840697265625,2.238518492621928,4.813699674132466,-0.37576281939446926
1620232221252701000,0.850700927734375,-0.5276258441187441,2.5971856541782614,4.245304158860445
1620232221262705200,0.860705078125,-3.23636326315999,-1.1418284401893615,6.974913831669092
1620232221272709000,0.870709228515625,-4.015772934174538,-2.267125724555552,6.232561679416895
1620232221282713000,0.880713134765625,-2.885736638587713,-4.184087765875458,3.9980718577891587
1620232221292717300,0.89071728515625,-1.083837877383083,-1.0554691303804515,0.586700987291336
1620232221302720000,0.900719970703125,0.20813421639204024,0.7291542325049638,-2.540333301621675
1620232221312724200,0.91072412109375,2.0884721619307993,-0.5027408475786447,-1.9034628005385397
1620232221322728200,0.920728271484375,3.4675226735696194,-1.9669149897515772,0.25993922243118284
1620232221332732200,0.930732177734375,5.168755221062899,-2.509667529723048,2.680675838291645
1620232221342736100,0.940736083984375,5.043176538282633,-2.5263041917473075,3.5726311075121164
1620232221352740000,0.950739990234375,3.9171637991234656,-3.3136201058417556,3.1395489025712013
1620232221362744000,0.960744140625,1.6844401103854179,-5.823720766285062,2.9048423210740086
1620232221372747300,0.970747314453125,-0.006898235081136226,-6.469326947009563,0.8748217635899782
1620232221382751200,0.980751220703125,-1.4320315757200122,-3.6278181572049855,-0.6861369285553693
1620232221392755000,0.9907548828125,-2.51455910115689,-0.47985769238024945,-0.8637059108138084
1620232221402759200,1.00075927734375,-2.798210330826044,1.6790432197779417,-1.9620435843229294
1620232221412763100,1.01076318359375,-1.192759001481533,4.530564285030961,-2.7255805634230375
1620232221422767000,1.02076708984375,0.5472133187726139,6.333565308389067,-2.181299498710036
1620232221432771300,1.030771240234375,1.2930652958393096,8.198179030573367,0.45331718371808527
1620232221442774000,1.04077392578125,-0.6326385626018047,9.334253437280655,4.208001725426316
1620232221452778000,1.050778076171875,-4.144388792693615,6.321715296119451,5.121081615740061
1620232221462782200,1.0607822265625,-7.760344078147411,-2.774430811309814,6.977385190218687
1620232221472786200,1.0707861328125,-8.195849126321077,-12.423131306278705,4.122216123852134
1620232221482790100,1.0807900390625,2.5390070214539766,-1.0752870527893303,-6.716984780016541
1620232221492794400,1.09079443359375,4.29276821308583,0.44024318261146544,-7.024771210771799
1620232221502798300,1.10079833984375,1.0778621639743446,-2.2206696783289313,-3.115643126326799
1620232221512802300,1.11080224609375,0.8265665589869022,-2.368710660547018,-1.0958780053973198
1620232221522805200,1.12080517578125,3.199707310935855,-1.9191987143307923,1.124380461782217
1620232221532809200,1.130809326171875,3.2628280762374398,-1.7447013946026562,2.1826976750701665
1620232221542813200,1.140813232421875,2.628323427502811,-2.1782252058312297,0.8785375692427158
1620232221552817400,1.1508173828125,5.219989733737707,-0.08674392521232366,1.9905273360073565
1620232221562821000,1.160821044921875,7.031214980083703,1.456679694764316,4.209791531452536
1620232221572825000,1.1708251953125,0.8670746565945446,1.5710013627320527,4.418718359526991
1620232221582829300,1.180829345703125,-1.152194205250591,4.328555565781891,1.0429793589025735
1620232221592832300,1.190832275390625,-6.027122108936309,4.097036674410105,-0.01806289543509483
1620232221602836200,1.200836181640625,-12.255006444191931,-2.0780518902033567,1.1753893490076064
1620232221612840200,1.210840087890625,-6.3229012910336255,-4.452846254578232,-3.626683015695214
1620232221622844200,1.22084423828125,-2.203773196324706,-4.367267866013944,-4.60749788710773
1620232221632848400,1.230848388671875,3.392596611922979,0.09061229107826947,-0.5144494055509568
1620232221642852400,1.240852294921875,5.817759227532148,1.379776195564866,1.3638590799868107
1620232221652856300,1.250856201171875,4.2275159887135025,0.37974049085378647,1.5375398226350545
1620232221662859300,1.260859375,3.58075537725687,0.032713936600089075,1.3356453774154184
1620232221672863200,1.27086328125,4.956826288563013,0.5296960745215415,1.3749766863286494
1620232221682867200,1.2808671875,-0.2309439410280436,2.07546275049299,5.125059287199377
1620232221692871400,1.290871337890625,-6.884850114384293,-0.010929098032414913,4.856926236918568
1620232221702875100,1.300875244140625,1.4612766671657562,0.6688666448026895,3.8774692098557946
1620232221712879000,1.310879150390625,0.7020376775205135,2.0536428406119347,-1.2445891419619322
1620232221722883300,1.32088330078125,0.3380535587251186,1.4407444590076803,-3.6286148605406283
1620232221732886300,1.33088623046875,2.4536288316369057,1.061115904095769,-2.504344288873672
1620232221742890200,1.34089013671875,0.688787735325098,-1.0150526565790177,2.062666689544916
1620232221752894200,1.350894287109375,1.0538953051924704,-1.516337752391398,3.4233518156707285
1620232221762898200,1.360898193359375,4.289981504976749,0.3735217624694109,1.5193565156906843
1620232221772902100,1.370902099609375,4.653198731052875,1.6538374668508766,1.392850196671486
1620232221782906400,1.38090625,3.7417899888217447,1.980134536808729,1.274735273900628
1620232221792910300,1.390910400390625,2.9863024606645108,2.40678992357254,2.08768831807673
1620232221802914000,1.4009140625,1.6940730311274528,2.857937362036109,2.8858184716522692
1620232221812917200,1.410917236328125,2.637234171450138,3.441336969694495,3.7807916273891924
1620232221822921200,1.420921142578125,3.44201793769598,1.8120809863924978,1.868183981886506
1620232221832925400,1.430925537109375,4.41217463697195,-0.5777221465438604,-1.4211281966507434
1620232221842929400,1.440929443359375,-3.9113060130059716,-3.0538533173680302,-5.747345967134833
1620232221852933000,1.45093310546875,-8.100697145986556,-4.833657589533924,-6.935002092519402
1620232221862937000,1.46093701171875,-8.967351385211945,-4.28371426127553,-3.997573845139146
1620232221872941300,1.47094140625,-7.53732793444395,-0.797937261351943,0.7400877144515514
1620232221882944300,1.4809443359375,-3.7238361067190766,2.942462734416127,1.1145458809882403
1620232221892948200,1.4909482421875,-0.8696002295494079,3.602212006783485,0.37953415462672707
1620232221902952200,1.5009521484375,0.36475685673356056,3.9163708951801057,1.299394498860836
1620232221912956200,1.5109560546875,0.35412878747433424,3.920734935608506,1.0324456899285317
1620232221922960400,1.52096044921875,2.1567523558221757,3.0840882966339587,-0.17539982152581213
1620232221932964400,1.53096435546875,0.5920023085698485,-0.47088265102505683,-0.6372393343955278
1620232221942968300,1.54096826171875,-0.6792553523480892,-0.9690987146556377,-1.4487772510766983
1620232221952971300,1.55097119140625,0.903606544047594,0.3005138094037771,-2.4620710812896487
1620232221962975200,1.560975341796875,0.8905917257823049,-0.05864800380170345,-3.4505899512082334
1620232221972979200,1.570979248046875,-0.3502550147809088,-2.5293776078432795,-2.0260990001261234
1620232221982983400,1.5809833984375,0.11321940581426024,-1.2967524599194526,-1.8313982658028602
1620232221992987100,1.590987060546875,-1.4864567011296748,1.0853542732954025,-1.5430354974418878
1620232222002991000,1.6009912109375,1.9154737024582922,-1.2175567581295967,0.6551145983040333
1620232222012995300,1.610995361328125,1.5816542741715907,-2.4289959101617336,-1.5398147818297148
1620232222022999300,1.620999267578125,-0.47677828493490815,-1.1948784778535366,-2.3173960683733226
1620232222033002200,1.631002197265625,1.976041860667616,0.007245733344554901,-1.056218195182085
1620232222043006200,1.641006103515625,2.990814969652891,1.1290215655863285,-2.0419699384748933
1620232222053010200,1.65101025390625,-0.7027144077382982,1.7905220655351877,-2.0450912853658196
1620232222063014100,1.66101416015625,-1.7766729884028434,0.6443658252745866,-3.056837593875825
1620232222073018400,1.671018310546875,-1.3325753223203123,1.5131880561888218,-6.342649947598576
1620232222083022300,1.681022216796875,-0.6434510485172271,1.4888526563555002,-8.787489323580264
1620232222093026000,1.691026123046875,0.30546164106950163,-0.28248189362883563,-6.422096409279107
1620232222103029200,1.701029296875,-0.69509947575517,-1.9029899223297833,-2.8782144263893366
1620232222113033200,1.711033203125,3.3851474649608133,-3.6180139715492725,-1.283959613841772
1620232222123037400,1.721037353515625,5.694789850467443,-3.0190561447530984,2.459937576392293
1620232222133041200,1.731041259765625,2.4077555537343023,-1.0572598131895066,10.449842689841985
1620232222143045000,1.741045166015625,-1.8120798173487185,2.2650118011415,13.272788817995785
1620232222153049300,1.75104931640625,-2.2552350880146026,4.348766871422529,7.10692225523591
1620232222163053300,1.76105322265625,-1.1140262410283088,2.2667957619488237,0.8404039456814527
1620232222173056300,1.77105615234375,-1.1783739177763461,0.6630828007042407,-1.8639900373280047
1620232222183060200,1.781060302734375,-0.6155448775250464,0.9957295319497584,-2.504011111396551
1620232222193064200,1.791064208984375,0.12435812800936401,1.9871347709596157,-2.339009934288263
1620232222203068200,1.801068115234375,0.5325087207894772,2.6657617622762917,-1.9937574039697645
1620232222213072400,1.811072265625,0.6076338121395558,2.576695239335298,-1.6861223643839358
1620232222223076400,1.821076416015625,0.7040520130176097,2.01737676448822,-1.544465237984061
1620232222233080000,1.831080078125,0.47329219638481734,1.3247697631359099,-1.462925603416562
1620232222243083300,1.841083251953125,-0.630540202083066,0.3210089004218578,-1.0437918443292378
1620232222253087200,1.851087158203125,-1.417204885727167,0.18926058909595012,-0.9826900176346302
1620232222263091200,1.86109130859375,-0.28147531040217727,1.5789894388765096,-1.3499538887530564
1620232222273095200,1.87109521484375,-0.02249010076019913,2.3088018430292605,-0.9895166487842798
1620232222283099100,1.88109912109375,-0.16856792967915535,2.555377141496539,-0.31924364431500435
1620232222293103000,1.89110302734375,-0.20243160256994888,2.490352003878355,0.34657062717974185
1620232222303107300,1.901107421875,-0.33812603943943975,1.773003359979391,1.1907780567973851
1620232222313111300,1.911111328125,0.0790063166975975,0.26352000352740285,1.9960195036828516
1620232222323114200,1.9211142578125,1.2568506576418876,-1.78397132871747,2.6519594468951224
1620232222333118200,1.9311181640625,2.2078946601688862,-3.4087586421728133,2.9707728830993174
1620232222343122200,1.9411220703125,2.2802993866443635,-3.9086668966740366,3.322082813760638
1620232222353126400,1.95112646484375,2.307481992602348,-3.802071731305122,3.37856984013617
1620232222363130400,1.96113037109375,1.9761095190763471,-3.6245635393232103,2.978717120102048
1620232222373134000,1.971134033203125,0.943038390725851,-3.0064854169934985,1.9731360562235116
1620232222383138300,1.98113818359375,0.13937223033308982,-2.162743266800046,1.1059721139103174
1620232222393141200,1.991141357421875,-0.16395312936007975,-1.9532552977114914,0.7265192078262567
1620232222403145200,2.001145263671875,0.1443313140451908,-2.027777746993303,0.06758417445123195
1620232222413149400,2.0111494140625,0.04472757846619933,-1.7699901496380566,-0.7112322068452834
1620232222423153200,2.021153076171875,0.37614217410087586,-1.0670271739661692,-1.5332617069244383
1620232222433157000,2.0311572265625,0.871686972695589,0.20321020399332046,-2.278091062945127
1620232222443161300,2.041161376953125,0.8506172966599463,1.0056868623405695,-2.756529243916273
1620232222453165300,2.051165283203125,-0.11887306592809035,1.1571721397936343,-2.770291227287054
1620232222463168000,2.06116796875,-1.5270903248131273,1.3986018920660017,-2.7838825302660464
1620232222473172000,2.071171875,-3.1254116561472416,1.0347621501773596,-2.293916408586502
1620232222483176000,2.081176025390625,-3.9786347513914104,0.29230770659446714,-1.167525483764708
1620232222493180000,2.091179931640625,-3.9675943019390103,-0.05283551813066006,-0.22040391537845133
1620232222503184000,2.101183837890625,-3.269620220595598,-0.838612970611453,0.8338026477202772
1620232222513187800,2.111187744140625,-1.781966418635845,-2.099504428076744,1.5187959591984748
1620232222523191800,2.12119189453125,0.03356386796031147,-5.11043279595375,1.539636794914305
1620232222533194800,2.13119482421875,0.7661726613659411,-6.092820615771412,1.280753803537786
1620232222543198700,2.14119873046875,1.027038935514167,-5.019563022983074,1.428372468690574
1620232222553203000,2.151202880859375,1.6868788818396627,-4.497712401264906,1.9034496487960217
1620232222563207000,2.16120703125,1.910743605196476,-5.13439936247468,2.0415058280944822
1620232222573211000,2.1712109375,1.8993658866137264,-5.223901354223489,1.7152134343117476
1620232222583214800,2.18121484375,1.5637370708175002,-5.1271360934734345,1.6744482932031153
1620232222593218800,2.19121875,0.9682898824907838,-4.3960283888131375,1.4557906369701028
1620232222603222800,2.201222900390625,0.37100130408108234,-3.0477351267486807,0.8017898451268672
1620232222613226000,2.21122607421875,0.5829886887699365,-2.5300457163631913,0.37412382001578803
1620232222623230000,2.22122998046875,1.0032945603765546,-1.7540350401371716,-0.6159957630977034
1620232222633233700,2.231233642578125,1.2506520952627063,-0.632803982296586,-1.5109996062338351
1620232222643238000,2.24123779296875,0.9498692596592009,0.5873930612087249,-2.0829054677143692
1620232222653241900,2.251241943359375,0.8604964472480118,2.3607103094428776,-2.786837580679357
1620232222663245800,2.261245849609375,0.46210327837243675,4.150747221809626,-3.0762904823645947
1620232222673250000,2.27125,-0.20183950016200541,5.186148254412412,-2.991683569180965
1620232222683252700,2.281252685546875,-1.097688269689679,5.229079633644223,-2.827209630817175
1620232222693257000,2.291257080078125,-1.700022294920683,4.003157198229432,-2.195582291084528
1620232222703261000,2.301260986328125,-2.2858009066700933,1.5529636017382145,-1.3472943141549825
1620232222713265000,2.311264892578125,-3.0054923143029213,0.5070312382489442,-1.5453499118641019
1620232222723268900,2.321268798828125,-4.032884227973223,-3.9692724642843005,1.8131966925494372
1620232222733272800,2.33127294921875,-4.465827608965337,-2.4145325005233285,2.139150209766626
1620232222743276800,2.34127685546875,-4.112837470132113,1.6857944476038216,0.8542688049048185
1620232222753280000,2.351280029296875,-3.605071487867832,5.675437499743699,0.87543858031407
1620232222763284000,2.361283935546875,-2.52607622821033,8.542515615090727,1.4611357973903416
1620232222773287700,2.37128759765625,-1.209287380825728,9.546642973029613,2.397646247652173
1620232222783292000,2.3812919921875,0.20719269775822757,9.673626846432684,2.550390292994678
1620232222793296000,2.3912958984375,1.6309611797846852,8.985689590457081,1.940096833191812
1620232222803299800,2.4012998046875,2.5664053159892557,7.053238011321425,1.2935294062197207
1620232222813304000,2.411303955078125,2.90682648062855,5.5575867808669805,0.7670482020914554
1620232222823306800,2.421306640625,3.312289734020829,4.1570828545719385,0.7205288813702762
1620232222833310700,2.431310791015625,3.8939825377613304,2.362133035722375,1.1569488524317741
1620232222843315000,2.44131494140625,3.5838100886523723,1.0959469789803027,1.4013107126332818
1620232222853319000,2.45131884765625,2.7139737122595307,0.12015665773153304,1.453412217400968
1620232222863323000,2.461322998046875,2.338532964426279,-1.0005845707654952,1.4167841760970652
1620232222873326800,2.471326904296875,2.2214640435770154,-2.106018340015411,1.4192124261572956
1620232222883330800,2.481330810546875,2.1703917357265947,-3.1978701586365696,1.5030318422250448
1620232222893334000,2.491333984375,2.0521435419648886,-4.09489966238141,1.7248159599155186
1620232222903338000,2.501337890625,1.5823991011895238,-4.617887179175019,2.442977966023981
1620232222913341700,2.511341796875,0.5991963117271661,-4.549011795869469,3.0169501123845577
1620232222923346000,2.521345947265625,-0.4326058196008205,-3.7911663064092394,3.0280045903623103
1620232222933350000,2.531349853515625,-1.307986386117339,-2.90741421738863,2.6995097180992365
1620232222943353900,2.541353759765625,-1.964625417509675,-2.0345242986440657,2.3449114134170115
1620232222953357800,2.55135791015625,-2.5543062973946333,-1.2153747379153965,1.8978006831236183
1620232222963360800,2.56136083984375,-3.038888972470164,-0.3294499810308218,1.2088152332693338
1620232222973364700,2.57136474609375,-3.045800943815708,0.6127472826957703,0.37664544744789596
1620232222983369000,2.581368896484375,-2.747051221475005,1.4575538472503422,-0.3537603925533592
1620232222993373000,2.591373046875,-2.2016987281382083,1.6050865876853464,-1.0579672308064996
1620232223003377000,2.601376953125,-1.4361438333444296,1.4665905556648968,-1.7046734817273914
1620232223013380900,2.611380859375,-0.4674349947892129,1.414741125962138,-2.095647898779064
1620232223023384800,2.621384765625,0.5171535499431192,1.0257552523791789,-2.530008891484141
1620232223033388800,2.631388916015625,1.047941365224123,0.42925241751968857,-2.964785333122313
1620232223043392000,2.64139208984375,1.42432377782166,-0.2623229026973247,-3.213487122224271
1620232223053396000,2.65139599609375,1.7076565891914068,-0.8933891014158725,-3.106717477071285
1620232223063399700,2.661399658203125,1.9329905083179473,-1.820150311079621,-3.055255000859499
1620232223073404000,2.67140380859375,2.2026931460030377,-2.666313550940156,-3.3285628234297033
1620232223083408000,2.681407958984375,2.1107580818884073,-2.9882910041332242,-3.0859289560645817
1620232223093411800,2.691411865234375,1.5499823939703403,-3.111861269700527,-2.60024679531455
1620232223103414800,2.701414794921875,0.8327168983101845,-2.805278369516134,-2.3422924630902706
1620232223113418800,2.711418701171875,0.4485714504957199,-2.5547674851655957,-2.2917324886761605
1620232223123423000,2.721423095703125,0.5234878675311804,-2.220248530307412,-2.217915849576145
1620232223133427000,2.731427001953125,0.3567407235383987,-2.12713243971467,-1.8676153882183133
1620232223143431000,2.741430908203125,0.18543956950306892,-1.5068769733458756,-1.8904561655797063
1620232223153435000,2.751434814453125,0.16380948310568927,-0.8571960905283689,-2.001291306605935
1620232223163438800,2.76143896484375,0.05637012199759483,-0.2890022353082895,-1.8624374010585247
1620232223173442800,2.77144287109375,-0.012671265524625778,0.26600831321179863,-1.8027144615016877
1620232223183446000,2.781446044921875,0.0220902512550354,0.778772542154789,-1.6589241224654019
1620232223193450000,2.791449951171875,0.17969255028367043,1.130775715777278,-1.4818040530182421
1620232223203453700,2.80145361328125,0.36284108624011274,1.1909715335428714,-1.3255571141213178
1620232223213458000,2.8114580078125,0.49632045914232725,1.0151455955594777,-1.2490633647665381
1620232223223462000,2.8214619140625,0.6136068221345543,1.2170517312169074,-1.1634287159703671
1620232223233465900,2.8314658203125,0.6118617320328951,1.0411205792933702,-0.9259534004122019
1620232223243470000,2.841469970703125,0.38716859502792356,0.8409019583314656,-0.6256444659307598
1620232223253472800,2.85147265625,0.20342939970195292,0.46652153320610523,-0.32107056748121976
1620232223263476700,2.861476806640625,0.5498144411817193,-0.01740589283108711,-0.22374577315226196
1620232223273481000,2.87148095703125,3.885278130041063,-0.8297305759757757,-0.6014550504393875
1620232223283485000,2.88148486328125,5.491911654907464,-1.3949766873061655,-0.806980691768229
1620232223293489000,2.891489013671875,2.2798627487927674,-1.5477344689130783,-0.614471037748456
1620232223303492900,2.901492919921875,-0.519877129688114,-1.4966928484618662,-0.13117752570062874
1620232223313496800,2.911496826171875,-1.7734401439614593,-1.6454881561785935,-0.011936521509289741
1620232223323500000,2.9215,-2.2870487147741017,-1.6120096649467943,-0.13076631455123425
1620232223333504000,2.93150390625,-1.8843124021276831,-1.3629641769737004,-0.3789423262134194
1620232223343507700,2.9415078125,-0.6930114904999732,-0.8249860117971897,-0.7894801063910126
1620232223353512000,2.951511962890625,0.65831441725865,0.012902151671051978,-1.2630650021120906
1620232223363516000,2.961515869140625,1.2896629400499164,0.864321996885538,-1.4323399110168218
1620232223373520000,2.971519775390625,1.395143860566616,1.4277432308763265,-1.3757754354909062
1620232223383523800,2.98152392578125,0.9993956532418727,1.6025503472059963,-0.4855453826278448
1620232223393526800,2.99152685546875,-0.3387292660295963,1.6517933938026428,1.1848466209217905
1620232223403530800,3.00153076171875,-2.0051110110245642,1.51011405557096,3.0942803125634786
1620232223413535000,3.011534912109375,-3.373094039073586,1.1188029539108275,4.540231400303543
1620232223423539000,3.0215390625,-3.5025343657180663,0.3475771738737821,4.7075227341756225
1620232223433543000,3.03154296875,-2.297166350293159,-0.9410270509034395,3.8710596350744364
1620232223443547000,3.041546875,-0.1583563322663307,-2.2521166637331245,3.0360902816623447
1620232223453550800,3.05155078125,1.9258178402096031,-3.1992624897778033,3.3305443526357412
1620232223463554300,3.06155419921875,2.2907126441091297,-3.533852171784639,4.569721406421065
1620232223473558500,3.07155859375,2.260783954313397,-3.554697975936532,5.568381146603822
1620232223483562500,3.0815625,2.499377021855116,-3.3254368003636596,6.047324354487658
1620232223493566200,3.091566162109375,2.5457746158927677,-2.870604535907507,6.001806465893983
1620232223503570400,3.1015703125,1.9014391857564448,-2.2494512439161536,5.190359734627604
1620232223513574400,3.111574462890625,0.5185970998149365,-1.5134405696451663,3.7046956451803443
1620232223523578400,3.121578369140625,-0.6431325571525841,-0.7969570181429386,1.4630045138716696
1620232223533581300,3.131581298828125,0.08576989254839718,-0.5010545019268989,-1.3733224893808365
1620232223543585300,3.141585205078125,1.4220762911558151,-0.6286977160215378,-3.741726275935769
1620232223553589200,3.15158935546875,1.829759266424179,-0.7917641256749629,-4.4070752680063245
1620232223563593500,3.161593505859375,1.4191035589553416,-0.8901736465007066,-3.3998587118804453
1620232223573597400,3.171597412109375,1.5281705212652683,-0.8437766369849443,-1.9441724120676516
1620232223583601400,3.181601318359375,2.2025340099185704,-0.47985155490040776,-0.5118026904344558
1620232223593605400,3.19160546875,1.3848364015638828,-0.05463818363845348,0.7309633277535438
1620232223603608300,3.2016083984375,0.09887070859670638,-0.26263094573318957,1.2319120312184095
1620232223613612300,3.2116123046875,-0.4576467373549938,-1.403465698710084,1.355585172638297
1620232223623616500,3.221616455078125,-0.6326070714849978,-2.6396815646022556,1.3743950870484112
1620232223633620200,3.2316201171875,-1.0207564211785793,-3.3239597135484216,0.8807979153901339
1620232223643624200,3.241624267578125,-0.6127799428563565,-3.5493612910836934,0.20417758772075176
1620232223653628400,3.25162841796875,0.39681612881720063,-3.4439556277602907,-0.49561961739659305
1620232223663632400,3.26163232421875,0.4258195204615593,-2.886833201652765,-0.9105652771443128
1620232223673635600,3.271635498046875,0.061548985940217966,-1.8828630801022053,-0.48620180070996283
1620232223683639300,3.281639404296875,-0.10213577480725944,-0.9265788388341665,0.1352472593575716
1620232223693643300,3.291643310546875,-0.4742260431688279,-0.43879532189071174,0.6427858626067638
1620232223703647500,3.3016474609375,-0.8437292176466434,-0.5030073895603419,1.0466244374066591
1620232223713651500,3.3116513671875,-0.8997591479044407,-0.9883791691869497,1.1258072797149419
1620232223723655400,3.321655517578125,-0.6879260769944637,-1.453514800992608,0.8546358846515416
1620232223733659400,3.331659423828125,-0.24012393037080762,-1.5574948154270647,0.4408364723294973
1620232223743663400,3.341663330078125,0.6486953789114952,-1.2850462400346994,-0.11739420728087424
1620232223753666300,3.351666259765625,0.9733277305275201,-0.48615737704634665,-0.7038987952172756
1620232223763670500,3.36167041015625,1.2775462396681307,0.6152256555080413,-1.0885136141091585
1620232223773674500,3.371674560546875,0.1437433580894023,1.5554250234156846,-1.4359750526487827
1620232223783678200,3.38167822265625,-0.3246668384075165,1.918244190084934,-1.8287293388545511
1620232223793682400,3.391682373046875,0.04798910101279616,1.668753296431899,-1.8329437416791914
1620232223803686400,3.401686279296875,-0.02463993573784828,0.9155065329387784,-1.2740297559797764
1620232223813690400,3.4116904296875,0.601517594281584,-0.04657178156077862,-0.7171645195037126
1620232223823693300,3.421693359375,1.4675930107057094,-0.7339163323402405,-0.33393267940282817
1620232223833697300,3.431697265625,1.6505752501845359,-1.056199490481615,-0.13224573945403098
1620232223843701200,3.441701171875,0.9566158113099634,-1.0975777950525283,-0.351838922971487
1620232223853705500,3.45170556640625,0.3714287357129156,-1.0118334022715687,-1.1516530841112136
1620232223863709400,3.46170947265625,0.8421009588576853,-0.9950658073440194,-2.0404279697299
1620232223873713400,3.47171337890625,1.2855208718091249,-1.0494143603861332,-2.3021622588843105
1620232223883717400,3.48171728515625,1.7833569962114095,-1.6119003593534231,-1.526007790273428
1620232223893720300,3.49172021484375,2.950667083659768,-2.6268001634582876,-0.018013795596361157
1620232223903724500,3.501724609375,3.0072312669247387,-3.355224328123033,1.4639204596728086
1620232223913728500,3.511728515625,2.397205079755932,-3.6194849208846684,2.363225507134199
1620232223923732200,3.521732177734375,1.9666649605132638,-3.272399622181058,2.636602887809276
1620232223933736400,3.531736328125,1.4367444295860825,-2.580456929956376,2.368596678778529
1620232223943740400,3.541740478515625,1.171263939640671,-2.084309489293396,1.6953922970324753
1620232223953744400,3.551744384765625,1.338622931921482,-1.9322294608175754,0.8186123851120471
1620232223963747300,3.561747314453125,1.650089804755151,-1.9142843465432524,0.4832967269182205
1620232223973751300,3.571751220703125,1.6631623445570467,-1.96812202745378,1.0850286946028471
1620232223983755300,3.58175537109375,1.2624024465501307,-2.5571950045734644,2.0619868905872107
1620232223993759500,3.591759521484375,0.9435293891131877,-3.5344539370700714,3.148758629465103
1620232224003763500,3.601763427734375,-0.29162673859298227,-4.473952755492926,4.086528139877319
1620232224013767400,3.611767333984375,-1.8743819597437976,-5.030310042446851,4.474028158816695
1620232224023771400,3.621771484375,-2.941528668436408,-4.771460953339934,3.816842599457502
1620232224033774300,3.6317744140625,-4.344884769292175,-3.3903920876160263,2.007232971614599
1620232224043778300,3.6417783203125,-4.75248386566937,-1.6929744222357868,0.19078560670614242
1620232224053782500,3.651782470703125,-4.202774930688738,-0.8487412736549973,-0.9154144707411527
1620232224063786200,3.6617861328125,-3.2416531862616536,-0.3305950594127178,-1.4684095877856016
1620232224073790200,3.671790283203125,-3.00299523679018,0.20594225930571555,-1.3283540513634682
1620232224083794400,3.68179443359375,-3.475887474071979,0.5235901588618755,-1.0415098708719015
1620232224093798400,3.69179833984375,-3.4191017570108175,0.834483907982707,-1.1211328581631184
1620232224103801600,3.701801513671875,-2.746433381837606,1.1938695930719374,-1.5742939745366573
1620232224113805300,3.711805419921875,-2.7683354170441627,1.7092469271227717,-2.0188398227781055
1620232224123809300,3.721809326171875,-3.6146395266801115,2.1992978044763207,-2.5835154407441614
1620232224133813500,3.7318134765625,-3.274711406254768,2.4876649567514657,-3.12209449442327
1620232224143817500,3.7418173828125,-2.5989941649049517,2.771139953070879,-2.7303122681200502
1620232224153821400,3.751821533203125,-2.8932477448701857,2.7301366192921996,-1.5938590912282466
1620232224163825200,3.7618251953125,-3.8458822314590213,2.3405735303431747,-0.702344551512599
1620232224173828400,3.771828369140625,-4.299605073368549,1.8769883428499101,-0.3361293126642704
1620232224183832300,3.781832275390625,-3.4948657307863233,1.969102855184674,-0.07186638181507587
1620232224193836500,3.79183642578125,-2.241011916872859,2.549390468302369,0.18716215551197526
1620232224203840300,3.80184033203125,-1.4848136100977658,3.2760610672980546,0.3187228353112936
1620232224213844200,3.81184423828125,-0.768707075214386,3.656498600505292,0.21133330469429493
1620232224223848400,3.821848388671875,-0.8555869017660618,3.3471696164831517,-0.16308803696334362
1620232224233852400,3.831852294921875,-1.369654614523053,2.752584597943723,0.12276362535953521
1620232224243855400,3.84185546875,-1.6034470037847757,1.667497305021435,1.246808571577072
1620232224253859300,3.851859375,-2.4322937826633453,0.45661827109009023,1.9904986944347618
1620232224263863300,3.86186328125,-3.465951770991087,-0.05659640503413975,2.100025237080455
1620232224273867300,3.8718671875,-4.016760191646218,-0.12311923386417328,1.936420775027573
1620232224283871500,3.88187158203125,-4.093108102789521,0.68363210612759,1.4756559056520462
1620232224293875500,3.89187548828125,-3.176616358205676,2.338807105192542,1.614564025604725
1620232224303879200,3.901879150390625,-0.5142068289667368,3.246806331241131,2.017688314655423
1620232224313883400,3.91188330078125,2.7800369607537982,3.2603611016020175,2.067135067130625
1620232224323886300,3.92188623046875,2.6893992429733276,3.461991342927515,2.6011431596323846
1620232224333890600,3.931890625,0.827512315404415,3.6403929766178127,3.272696267040074
1620232224343894500,3.94189453125,-2.6832091561615465,3.0110321205124255,2.728959099945426
1620232224353898200,3.951898193359375,-22.43029569531679,-0.31304690856672823,-8.162043887352944
1620232224363902200,3.961902099609375,12.552443914890288,-3.192971865200996,-1.9270050041675566
1620232224373906400,3.971906494140625,-12.462652000284194,-6.172960320413113,4.83508382294476
1620232224383910400,3.981910400390625,-14.435191259658335,-4.9635149725466965,7.4092030743122095
1620232224393912300,3.991912353515625,-14.393372225582599,-4.92811106621027,7.107136190247536
1620232224403916300,4.001916259765625,-3.5704338897287844,0.5078405818704516,2.1221673646531998
1620232224413920500,4.01192041015625,-3.525674710547924,1.0439441122815012,0.3533051961317658
1620232224423924500,4.021924560546875,-3.402714101311564,-1.1337048280317337,0.23540559661202132
1620232224433928400,4.031928466796875,-2.2379244722515343,-0.5036853253545239,0.012529884292557835
1620232224443932400,4.041932373046875,-2.0833838988810776,-0.07159235064666718,0.2928988043554127
1620232224453936400,4.051936279296875,-2.30089501542747,-0.11088517244672402,0.4079614999487996
1620232224463939300,4.061939208984375,-2.047452169278264,0.0023806480588391423,0.5018257054951042
1620232224473943000,4.071943115234375,-1.3970230984419583,-0.00024571838937699795,0.4272779756415635
1620232224483947000,4.081947021484375,-1.1546768158465623,-0.028388657279498873,0.421093587918207
1620232224493951000,4.091950927734375,-1.3602695310622452,0.014871278053242712,0.5571212570637464
1620232224503955000,4.101954833984375,-0.6640776569604874,0.005080216740584001,0.4381210758909583
1620232224513959000,4.111958984375,0.30787235547304154,0.048030656865891065,0.1874814505942166
1620232224523963000,4.121962890625,0.6276414849668741,0.0288539732363075,0.05474544340521097
1620232224533966000,4.131966064453125,0.6181459268689156,0.09041713383235037,0.04331760207042098
1620232224543970000,4.141969970703125,0.8396393910497426,0.14364261026182212,-0.02378974864929914
1620232224553974000,4.15197412109375,0.8797545438170432,0.19880738419080152,0.051170069136470556
1620232224563978000,4.16197802734375,0.9124141198813914,0.5355936081275343,0.2271032668866217
1620232224573982000,4.17198193359375,1.1856634902626275,0.9454875374436378,0.18421265805661677
1620232224583986000,4.18198583984375,1.4163064755827188,0.6219966840129345,-0.026899112841486928
1620232224593990100,4.191990234375,1.2685977940589188,0.10070979712475091,-0.24245734175443648
1620232224603992800,4.201992919921875,0.8392483459055423,-0.15828432647604496,-0.39114743553102016
1620232224613997000,4.2119970703125,0.5062620074421167,-0.005092619564430788,-0.30411110324338075
1620232224624001000,4.2220009765625,0.08684358619451522,-0.049973479763045905,-0.29019115283191205
1620232224634005000,4.2320048828125,-0.7333283033192157,-0.4994860105011612,-0.21785890707075595
1620232224644009200,4.24200927734375,-0.48481940644085403,-0.008691598471044563,-0.17175108975991607
1620232224654013000,4.252012939453125,-0.19517244348824023,0.08698679405748844,-0.1947232384160161
1620232224664016100,4.26201611328125,-0.3981856636047363,-0.004329517104290426,-0.15017814037725327
1620232224674020000,4.27202001953125,-0.41708851699531074,0.19220215897317974,-0.0925520269691944
1620232224684024000,4.282024169921875,-0.19945289728641508,0.28337822141405195,-0.13772110212519764
1620232224694027800,4.29202783203125,-0.410717228397727,0.37241087861806155,-0.04479045110195875
1620232224704032000,4.302031982421875,-0.6129886902362108,0.5836003909274935,0.07124167404547334
1620232224714036000,4.312035888671875,-0.31049042901694773,0.4632232953783124,0.06742547675818204
1620232224724040000,4.3220400390625,-0.1365057349860668,0.14951537475273943,0.07790800006687641
1620232224734043000,4.33204296875,-0.04536240577101707,-0.018391446969448586,0.07728650716766715
1620232224744046800,4.342046875,0.15411211882531642,-0.1567688986781053,-0.026783231376856564
1620232224754051000,4.352051025390625,0.16391981161236763,-0.22498070350838822,-0.08709259251952171
1620232224764055000,4.362054931640625,0.2157306628704071,-0.20933000204786656,-0.12277750775441526
1620232224774059000,4.37205908203125,0.32621640593707557,-0.5178629768541082,-0.19477365342900155
1620232224784063000,4.38206298828125,0.3807663267701864,-0.3619811814751476,-0.22914441732540725
1620232224794067000,4.39206689453125,0.40791619950234886,-0.10781345511749386,-0.2708865867726505
1620232224804070000,4.40206982421875,0.4286842622429132,-0.02380770443109795,-0.31043051552325485
1620232224814077000,4.412076904296875,0.11116086584925651,0.4059242219675332,-0.21537585808336734
1620232224824081000,4.422080810546875,-0.014437690675258635,0.7553728157363832,-0.17217925204411147
1620232224834084000,4.432083984375,-0.06872399213612079,0.7397803290028124,-0.1150439908929169
1620232224844088000,4.442088134765625,0.062491235226392744,0.8004119809024035,-0.1340388334158808
1620232224854091800,4.452091796875,-0.006412789651751518,0.5550251615673303,-0.09870368146672845
1620232224864096000,4.462095947265625,-0.2937304328739643,0.5222250810537487,0.0056062225092202425
1620232224874100000,4.472099853515625,-0.5548918905764818,0.4295077439876273,0.0833363817911595
1620232224884104000,4.48210400390625,-0.5974567745834589,0.20840444816816597,0.10793657004050909
1620232224894108200,4.492108154296875,-0.5199813207149505,0.03364571929117664,0.21393756890855728
1620232224904112000,4.502112060546875,-0.8434615796864032,-0.12171334912162274,0.30782128287293015
1620232224914115000,4.512114990234375,-0.9320932183414697,0.007278758831322193,0.40614604802466925
1620232224924119000,4.522119140625,-0.7816454672425985,-0.08554532654490321,0.39132491098977623
1620232224934123000,4.532123046875,-1.0433832635283469,-0.2074764466030523,0.4195158172074705
1620232224944127000,4.542126953125,-1.3350555948287248,-0.6332759106572717,0.41079372770003975
1620232224954131000,4.552130859375,-1.4954226823955774,-1.103657991749048,0.4080621107790619
1620232224964135000,4.562135009765625,-1.5679565882086752,-1.3367083304718137,0.4613792018815875
1620232224974139000,4.572138916015625,-1.7725813351750372,-1.5581982875213025,0.4553384604126215
1620232224984143000,4.58214306640625,-2.1275322526872156,-1.678059469437599,0.41172976644113657
1620232224994146000,4.59214599609375,-2.399700842094421,-1.5958577176995574,0.45998204843476415
1620232225004150000,4.60214990234375,-2.6896681230425834,-1.499338102273643,0.6556172871291637
1620232225014154000,4.612154052734375,-2.558917006060481,-1.273317808318138,1.161199934004992
1620232225024158000,4.622157958984375,-2.290993799138069,-0.995367201443389,2.0323948853999374
1620232225034162000,4.632161865234375,-2.2127748334258794,-0.9954467694856226,2.952660595564544
1620232225044166100,4.642166259765625,-1.96097916996181,-1.1139467460513115,3.024758155786991
1620232225054169900,4.652169921875,-0.9247978006362915,-0.8746049059689044,2.2622154484212396
1620232225064173000,4.662173095703125,-0.11124269891381264,-0.7272483988836407,0.6568705020606518
1620232225074177000,4.672177001953125,-0.3322334742695093,-0.28911665546819565,-0.8133724386319517
1620232225084181000,4.682180908203125,-0.584684971293807,0.295451411447674,-1.682822738316655
1620232225094185200,4.692185302734375,-0.5652198078453541,0.771074534998089,-1.5054796737685798
1620232225104189000,4.70218896484375,-0.8123492330640554,1.1175123295783995,-0.9147925394505262
1620232225114193000,4.71219287109375,-1.366911453294754,1.417616243007034,-0.7776914689198136
1620232225124197000,4.722197021484375,-2.2439859642475843,1.4649557940699158,-1.219201018205285
1620232225134200000,4.732199951171875,-2.8969875159204004,1.3038624380551278,-1.4331354453086853
1620232225144203800,4.742203857421875,-2.993312631687522,0.9936522872842848,-1.11849052696079
1620232225154208000,4.7522080078125,-2.9180513467371463,0.5410673633635044,-0.545245818091929
1620232225164212000,4.7622119140625,-2.5792636285185813,0.2898676199659705,-0.3357797685742378
1620232225174216000,4.7722158203125,-2.3183044153898953,0.5621814630627632,-0.5634250333830714
1620232225184220200,4.78222021484375,-1.99596689671278,1.031083753925562,-0.7198398761928081
1620232225194223900,4.792223876953125,-1.4773966118395327,1.4076771789252758,-0.738988228777051
1620232225204227000,4.80222705078125,-1.2759820590913296,1.3128665593743323,-0.6709159785479307
1620232225214231000,4.81223095703125,-1.4114806628614662,0.8802823670834302,-0.2466957099765539
1620232225224235000,4.822235107421875,-1.6681272734880446,0.7342866269573569,0.37398996450304983
1620232225234239000,4.832239013671875,-1.7645242854475973,1.0232803866982458,0.7968763541221618
1620232225244243000,4.842242919921875,-1.7761136009544134,1.4980945319533348,1.0420815332800148
1620232225254247000,4.852246826171875,-1.865738926821947,2.0953458470925685,1.2194114460855723
1620232225264251000,4.8622509765625,-1.8319278426349161,2.635154442566633,1.3282163964584468
1620232225274255000,4.872255126953125,-1.6199369508147239,2.9654692237332463,1.3108870759949087
1620232225284257800,4.8822578125,-1.354182904624939,3.064331456762552,1.035829779408872
1620232225294262000,4.892261962890625,-1.1791115844011306,3.2188816747441886,0.8395023206666111
1620232225304266000,4.902265869140625,-1.2241624400049447,3.475513087801635,0.9150549897789955
1620232225314270000,4.91227001953125,-1.6442214972436426,3.736164550155401,1.0185419599995016
1620232225324274200,4.922274169921875,-1.9567220970392225,4.05840153106749,1.0392439717665314
1620232225334278100,4.932278076171875,-2.0497657069176434,4.458591520231962,1.0542483564138412
1620232225344281900,4.94228173828125,-2.128786636662483,4.8783062940776345,1.0395067143559455
1620232225354286000,4.9522861328125,-2.2882027071148157,5.245443323945999,0.976504022476077
1620232225364289000,4.9622890625,-2.934247279256582,5.339823150864243,0.7819324674904345
1620232225374293000,4.97229296875,-3.5998312491267916,5.050218273487687,0.7416860895588994
1620232225384297000,4.982296875,-3.6773107946485277,4.546277402469515,0.9099427613317966
1620232225394301000,4.992301025390625,-3.7288036659985777,3.883600844478607,1.1901643088132143
1620232225404305000,5.002304931640625,-3.9521073944717644,3.1332600315600634,1.3516279594451188
1620232225414309000,5.01230908203125,-4.076300175851583,2.404762801659107,1.5895231078505516
1620232225424313000,5.02231298828125,-3.72392203143686,1.7398580462247133,1.969237295219302
1620232225434316000,5.03231591796875,-2.8705945990353823,1.295121643847227,2.3414368691742418
1620232225444320000,5.042320068359375,-2.1683877024278044,1.0249117872923612,2.6789474070638417
1620232225454324000,5.052323974609375,-1.9760192104443906,0.934576851850748,3.090960520491004
1620232225464328200,5.062328125,-1.8818460120141505,0.8400088088840245,3.5537475433439014
1620232225474332400,5.07233251953125,-1.7604747177958489,0.3358545873761177,4.024671695423126
1620232225484336400,5.08233642578125,-1.5259432006046174,-0.4562392086446285,4.553434288486838
1620232225494340400,5.09234033203125,-1.2579236937008798,-1.2238929754137993,5.232269954118133
1620232225504344600,5.102344482421875,-1.6044373299963772,-1.7636451645255087,5.875445692825317
1620232225514347300,5.11234716796875,-2.437875382187962,-2.290100065168738,6.064637892860174
1620232225524351200,5.122351318359375,-3.5155379319369793,-2.8856647423952815,5.691984729918837
1620232225534355500,5.13235546875,-3.9147149446666236,-3.0419004292458296,5.187639369753003
1620232225544359400,5.142359375,-4.1868975625991816,-2.8702561608612536,5.025100198844075
1620232225554363400,5.15236328125,-5.092364055299758,-2.8671558567583557,4.952244221469759
1620232225564367400,5.162367431640625,-5.226234765607118,-3.008517799603939,4.574726082840562
1620232225574371300,5.172371337890625,-4.085667723655701,-3.397285646522045,3.8550767607837915
1620232225584374500,5.18237451171875,-2.6077099708020683,-3.8490281282693144,3.04904211769402
1620232225594378500,5.19237841796875,-2.388392097094655,-4.266045333594083,2.2647598722070454
1620232225604382200,5.20238232421875,-2.9658377647846934,-4.945428111714125,1.1714981867879628
1620232225614386400,5.212386474609375,-2.999213380163908,-5.446915744361281,-0.2647387316673994
1620232225624390400,5.222390380859375,-2.931611670055985,-5.16380958135426,-1.3649761013180017
1620232225634394400,5.232394287109375,-2.5594641185492275,-4.330887515860796,-1.9929455030649899
1620232225644398300,5.2423984375,-2.4150503869175908,-3.303341288411617,-2.600860543298721
1620232225654402300,5.25240234375,-2.7522634031653403,-2.2362714443475005,-3.4797698684632774
1620232225664405200,5.2624052734375,-1.646155095654726,-1.381826113831997,-4.475331058108806
1620232225674409500,5.272409423828125,-0.30960955452919003,-1.0349375067442654,-5.1142859642505645
1620232225684413400,5.282413330078125,0.34137188949286934,-1.166798046272993,-4.934678754162788
1620232225694417400,5.29241748046875,0.9911118090212344,-1.3290619073718786,-3.6242221785396334
1620232225704421400,5.30242138671875,1.28879360986948,-1.3769044395208359,-1.7912065406680107
1620232225714425300,5.31242529296875,0.3792325413316488,-1.4924650016337633,0.28178105188310143
1620232225724429300,5.32242919921875,-0.0006359506828244776,-1.5365917281299828,2.815190691721439
1620232225734433500,5.33243359375,0.5513654700160027,-1.8189000187575817,4.909779290705919
1620232225744436200,5.342436279296875,1.03263507502079,-2.4912498295009136,5.89412759694159
1620232225754440200,5.352440185546875,0.8603893336117268,-3.136569009977579,5.635739111083746
1620232225764444400,5.3624443359375,0.8331383385926484,-3.3761002351522444,3.8612031347095965
1620232225774448400,5.372448486328125,1.1667150441646574,-2.98220028604269,1.5024708473414181
1620232225784452400,5.382452392578125,1.168163489407301,-2.2931296421229836,-0.4195476005852222
1620232225794456600,5.39245654296875,0.31029110705256463,-1.5984551868468522,-1.5630390055507422
1620232225804460300,5.402460205078125,-0.6482908897638321,-1.3754612549751997,-2.1334242333352567
1620232225814464300,5.41246435546875,-1.6502800666302442,-1.7815332879155874,-2.2381401608288285
1620232225824467500,5.422467529296875,-2.614516143685579,-2.498710082378983,-2.088551072385907
1620232225834471400,5.432471435546875,-1.9492039764940738,-3.21446824221611,-2.4074264679104087
1620232225844475400,5.442475341796875,-1.136072068619728,-3.5841029341191053,-2.563661570239067
1620232225854479400,5.452479248046875,-0.484554618024826,-3.599530220353603,-2.412494857215881
1620232225864483300,5.4624833984375,0.42938868418522175,-3.448043773856759,-2.3450217419236896
1620232225874487300,5.4724873046875,0.9359224943060427,-3.0188807881861925,-2.3574749807834623
1620232225884491500,5.482491455078125,0.8035369810551405,-2.251276705777645,-2.2491408627927303
1620232225894495500,5.49249560546875,0.35558914235047995,-1.5007090983659028,-1.8534622135728596
1620232225904498400,5.50249853515625,0.1807212357442826,-1.0594219596594572,-1.3355085992932318
1620232225914502400,5.51250244140625,-0.32833763587474823,-0.7177367664337158,-0.9232359581470488
1620232225924506400,5.52250634765625,-0.31055589546859264,-0.45411505609750746,-0.8208686396062373
1620232225934510600,5.532510498046875,0.19315935010015964,-0.20137948143482207,-1.1019546949625014
1620232225944514300,5.542514404296875,0.849981921365857,0.17884966971874236,-1.3544874405294656
1620232225954518300,5.552518310546875,1.165261338225007,0.6274643748342991,-1.2475029835820197
1620232225964522200,5.562522216796875,1.217529870122671,0.966026467603445,-0.8157119874954223
1620232225974526500,5.5725263671875,1.3172358604997396,1.0075047254174947,-0.23005437177717683
1620232225984529200,5.582529052734375,1.5981864529080687,0.7075830366879701,0.1522176833808422
1620232225994533400,5.592533447265625,1.5954923915185033,0.18746961402595042,0.3038344782590866
1620232226004537300,5.602537353515625,1.325488871190697,-0.34746728375852104,0.24486849454939363
1620232226014541300,5.612541259765625,1.210625497561693,-0.7496803031831979,-0.06597615473270416
1620232226024545500,5.622545654296875,0.8679711670428514,-0.9841863936722278,-0.46741526717543597
1620232226034549500,5.632549560546875,0.4251905749082565,-1.0480179375916718,-0.6041933893620968
1620232226044553200,5.64255322265625,0.42879239879250525,-1.06864805316627,-0.6259498786181211
1620232226054557400,5.652557373046875,0.43190731594264503,-1.1372609861433505,-0.50991117759943
1620232226064560400,5.662560302734375,0.6261242122717201,-1.3776818536341189,-0.4094786265134811
1620232226074564400,5.672564453125,0.6261544612795115,-1.724806023043394,-0.28863223295211793
1620232226084568300,5.682568359375,0.4052268142879009,-2.0754332321375606,-0.1818073504805565
1620232226094572300,5.692572265625,0.3628391865439713,-2.2338608760744334,-0.25836978115737436
1620232226104576300,5.702576171875,0.45824470324814315,-2.1877947059482334,-0.3419306924194097
1620232226114580500,5.71258056640625,0.4137945900164544,-1.9363976864129304,-0.29130057537853715
1620232226124584400,5.72258447265625,0.49700551879703997,-1.5308300958633423,-0.20769757854044435
1620232226134588400,5.73258837890625,0.6422014868475496,-1.0513415290564299,-0.080566405621171
1620232226144591400,5.74259130859375,0.5075855111308396,-0.536193035325408,0.09710019179284572
1620232226154595300,5.75259521484375,0.14643442380428312,-0.1030921256840229,0.14360475333631037
1620232226164599300,5.762599365234375,-0.15636238197013735,0.15199322697520254,-0.06726619454324245
1620232226174603500,5.772603515625,-0.34032793339788914,0.39094343739151954,-0.37689503829479215
1620232226184607200,5.782607177734375,-0.4957691088698804,0.6916998233795165,-0.6588268968254327
1620232226194611200,5.792611083984375,-0.5476653003238141,0.9387135132640599,-0.8726035030186176
1620232226204615400,5.802615478515625,-0.5360923514299094,1.1102934842407703,-0.998123149088025
1620232226214619400,5.812619384765625,-0.5311429123289882,1.173874268269539,-0.9735451726704836
1620232226224622600,5.82262255859375,-0.5589741914540529,1.081222288057208,-0.8228829020380973
1620232226234626300,5.832626220703125,-0.7425234171658754,0.817335204783082,-0.4891542207747698
1620232226244630300,5.84263037109375,-0.962205886401981,0.4359440241128206,-0.1946849522322416
1620232226254634500,5.852634521484375,-1.1299347349084914,0.09560849193036555,-0.09615092824399471
1620232226264638500,5.862638427734375,-1.1675076558470725,-0.1635287664681673,-0.0800040955632925
1620232226274642400,5.872642333984375,-1.0341912184216082,-0.3923620720177889,-0.1415215173214674
1620232226284646400,5.882646484375,-0.8454512921988964,-0.5042500830978155,-0.2721855405420065
1620232226294650400,5.892650390625,-0.707090869256854,-0.599662760195136,-0.41522243086248634
1620232226304653300,5.9026533203125,-0.644758623984456,-0.7226531800478696,-0.4839367783874273
1620232226314657500,5.912657470703125,-0.5656435862153768,-0.9748562552690505,-0.46645957388579845
1620232226324661500,5.92266162109375,-0.4436944921091199,-1.4096037630736826,-0.3148012779533863
1620232226334665200,5.932665283203125,-0.2806580392025411,-1.8496990616470574,-0.07917465900182724
1620232226344669400,5.94266943359375,-0.1727998681604862,-2.075818432062864,0.05049216987490654
1620232226354673400,5.95267333984375,-0.10665654016733168,-2.0511492702305314,-0.070862757730484
1620232226364677400,5.962677490234375,-0.06555033053606749,-1.723011540842056,-0.2753384516149759
1620232226374681600,5.972681640625,-0.12197919698357582,-1.1435516107201575,-0.40989480609893797
1620232226384684300,5.982684326171875,-0.25410861658155914,-0.5816022028476,-0.5082140182927251
1620232226394688300,5.992688232421875,-0.41938422671705483,-0.15774316880404948,-0.5208695017263293
1620232226404692500,6.0026923828125,-0.4199503361672163,-0.21950901236534118,-0.5873971528619527
1620232226414696400,6.012696533203125,-0.17409136927574873,-0.8363099543660879,-0.4965972302570939
1620232226424700200,6.0227001953125,0.19224457334280012,-1.349397423914075,-0.3035761195838451
1620232226434704400,6.032704345703125,0.6208423263460398,-1.56197985188663,0.030054654262959956
1620232226444708400,6.042708251953125,1.2907587724626064,-1.6961071673035621,0.5162888959378004
1620232226454712300,6.05271240234375,1.5496101996570826,-1.6473901904076338,0.678792995533347
1620232226464715800,6.0627158203125,0.5717085853427648,-1.7122370488494634,0.34992315247803923
1620232226474719700,6.0727197265625,-0.48992520514726634,-1.9034838433265684,0.016491116073727607
1620232226484723700,6.0827236328125,-1.0049192389689385,-1.898628219988942,-0.173982648204267
1620232226494728000,6.09272802734375,-1.1365578063100577,-1.831148674955964,-0.24919161844551563
1620232226504732000,6.10273193359375,-1.016333344039321,-1.7768968602865933,-0.2440817280858755
1620232226514735600,6.112735595703125,-0.6242538883551955,-1.7345429886817931,-0.01958586721867323
1620232226524739800,6.12273974609375,0.1907207247763872,-1.5687112059682606,0.4455775293767452
1620232226534743800,6.132743896484375,1.476522313223034,-1.1493699416100978,1.1454039605885744
1620232226544746800,6.142746826171875,2.5417712254703044,-0.6055196695297956,1.8597008157014845
1620232226554750700,6.152750732421875,2.071373143091798,-0.1600695659250021,2.0411624214842914
1620232226564754700,6.162754638671875,0.7531726753436029,0.17323475244641304,1.7638716667577623
1620232226574758700,6.172758544921875,-0.29127134928405285,0.4027659771323204,1.5050900899291038
1620232226584763000,6.182762939453125,-0.721244482293725,0.5017629424571991,1.3566396501272917
1620232226594766800,6.192766845703125,-0.1790403699852526,0.5365951863855123,0.9572605389542878
1620232226604770800,6.202770751953125,0.7302052028626204,0.40279403418302534,0.1884761607199907
1620232226614774800,6.21277490234375,0.3177367468833923,0.09417524425685406,-0.539304591474682
1620232226624777700,6.22277783203125,-0.7243633449666201,-0.15958324371278285,-0.8603412566863
1620232226634782000,6.232781982421875,-1.0391730984874068,-0.36903146531283854,-0.6831300018243491
1620232226644786000,6.242785888671875,-0.4387706258408725,-0.5498363607525825,-0.12585311580747366
1620232226654789600,6.25278955078125,0.40614992048218845,-0.5067079976439476,0.5796316334269941
1620232226664793900,6.2627939453125,0.9144576084077358,-0.3235246826350689,1.1754387411072849
1620232226674797800,6.2727978515625,1.1683769860275088,-0.1275397537201643,1.4924280306242406
1620232226684801800,6.2828017578125,1.0560248645670711,0.013141805645823477,1.4950171703346073
1620232226694805800,6.2928056640625,0.7424041747003793,0.10153145223855972,1.2238573195785283
1620232226704808700,6.30280859375,0.31860593093335626,0.13094693181514738,0.7890865770287812
1620232226714812700,6.312812744140625,-0.1283702131949365,0.14205810841619967,0.27696210729405285
1620232226724817000,6.32281689453125,-0.2216669210515916,0.1379436588346958,-0.22326178902760146
1620232226734820900,6.33282080078125,-0.30601430651620026,0.08236381043195724,-0.6642988984957336
1620232226744824800,6.342824951171875,-0.43858080235719676,-0.022110124999284744,-0.9886607626073062
1620232226754828800,6.352828857421875,-0.23478359225615858,-0.1574246043741703,-1.1025957693450152
1620232226764832800,6.362832763671875,-0.057880526560544966,-0.29638240868747234,-1.0054466238439081
1620232226774836700,6.372836669921875,-0.029223756396770474,-0.38852819294333457,-0.7623778721928596
1620232226784840000,6.38283984375,-0.038925650721788406,-0.4483259513020515,-0.5795007005237043
1620232226794843600,6.39284375,0.18981179323792458,-0.4850011927485466,-0.5076655906297266
1620232226804847600,6.40284765625,0.47269291531741614,-0.43046237783133984,-0.4997252991497516
1620232226814851800,6.412851806640625,0.6282435425132513,-0.3391033600389957,-0.5852915588848292
1620232226824855800,6.422855712890625,0.4385843094885349,-0.3442272789239883,-0.8578424256078898
1620232226834859800,6.43285986328125,0.24269363472834227,-0.42439504061639305,-1.2148887079641222
1620232226844864000,6.442864013671875,0.19456570976674556,-0.42141631706655025,-1.4700526788175106
1620232226854867700,6.45286767578125,-0.14033771436437964,-0.303856105569005,-1.5009848465673625
1620232226864871700,6.46287158203125,-0.3052057666122913,-0.12685118693411349,-1.1989113866314292
1620232226874875000,6.472875,-0.2750732248075306,-0.0035778584867715833,-0.7626015979461371
1620232226884878800,6.48287890625,-0.24538652707412836,0.06270166310667992,-0.40006402469724417
1620232226894882600,6.492882568359375,-0.036629064217209815,0.017162731724977492,-0.05363938185945153
1620232226904886800,6.50288671875,0.07955620566532015,-0.10891863988041878,0.16801935588568448
1620232226914890800,6.512890869140625,0.04635784654915333,-0.2723947993785143,0.1414344235599041
1620232226924894700,6.522894775390625,0.013125585163384676,-0.39787469795942304,-0.06538067305758595
1620232226934899000,6.53289892578125,0.03140519208908081,-0.422084425586462,-0.37331031167581674
1620232226944903000,6.54290283203125,0.047446080177277326,-0.33730653975009917,-0.6590495996654033
1620232226954905900,6.55290576171875,0.03824365980699658,-0.1925251438498497,-0.747794635567069
1620232226964909800,6.562909912109375,0.07143339722529053,-0.01861936027407646,-0.5542832571588456
1620232226974913800,6.572913818359375,0.00207549109980464,0.13760288257300854,-0.2022302530452609
1620232226984917800,6.582917724609375,-0.11436229223906993,0.22946751179993152,0.21263722689971326
1620232226994921700,6.592921630859375,-0.21579437575638294,0.2950204726845026,0.5248419124886393
1620232227004925700,6.60292578125,-0.23809958493635058,0.3579629588097334,0.7364797530874609
1620232227014929700,6.6129296875,-0.08518471307158469,0.3969651818990707,0.8924046204231679
1620232227024932900,6.622932861328125,0.12445406266450881,0.3569032206237316,0.9376775943450629
1620232227034936800,6.632936767578125,0.19463176074028013,0.2006687028169632,0.7880833913356066
1620232227044940800,6.64294091796875,0.1948041946977377,-0.026564766320586203,0.3826112239845097
1620232227054944800,6.65294482421875,0.18447116286233067,-0.21006839932501314,-0.03322290903553366
1620232227064948700,6.66294873046875,0.08956102845966815,-0.298759074690938,-0.30973990291059017
1620232227074953000,6.672952880859375,0.03335588776543736,-0.26245617368817326,-0.4498150208160281
1620232227084957000,6.68295703125,0.05581248811483383,-0.09471592700481414,-0.4209503069899976
1620232227094960600,6.692960693359375,0.2161257996678352,0.07468786897659302,-0.24736688723638653
1620232227104964600,6.702964599609375,0.16998174199983476,0.11174831034839153,-0.20196721819490193
1620232227114967800,6.7129677734375,0.04095978689789772,0.017302432456612588,-0.428499114934355
1620232227124971800,6.7229716796875,-0.019838234544545412,-0.08255962526500224,-0.6488274808585643
1620232227134976000,6.73297607421875,-0.06914353272244333,-0.10490063641071319,-0.6738261669062078
1620232227144979700,6.742979736328125,-0.09589826865717768,-0.07826397389769554,-0.5152770885467529
1620232227154983700,6.752983642578125,-0.1619356520578265,-0.06776011554002762,-0.25261706284955143
1620232227164988000,6.76298779296875,-0.24365137384459376,-0.06505553275644779,0.03669993749633431
1620232227174992000,6.772991943359375,-0.23260990147888658,-0.061817281487584114,0.2515234223939478
1620232227184995800,6.782995849609375,-0.24549042584002018,-0.05373159018754959,0.3558927284069359
1620232227194998800,6.792998779296875,-0.08901552340611815,-0.07129588845074177,0.2749338163368404
1620232227205002800,6.803002685546875,0.09531462355032563,-0.10682371342778205,0.06774257988333701
1620232227215006700,6.8130068359375,0.1116314059704542,-0.11381868688166141,-0.20182342581003904
1620232227225011000,6.823010986328125,0.1709359739847481,-0.11092764161527156,-0.4296658206261694
1620232227235014700,6.8330146484375,0.14889584548175333,-0.08571662799119949,-0.5016849087849259
1620232227245018600,6.8430185546875,0.0042705169260501856,0.01571370196044445,-0.34910233761444687
1620232227255022800,6.85302294921875,-0.1463848855741322,0.13825287091434002,-0.025302783560752867
1620232227265026800,6.86302685546875,-0.20186405008137226,0.18340075715184212,0.37021351470425723
1620232227275030000,6.873030029296875,-0.19374737912118434,0.13861761257350444,0.7061372217938303
1620232227285033700,6.88303369140625,-0.16842019177153705,0.0768804105848074,0.9104211924985051
1620232227295037700,6.89303759765625,-0.12942074516117572,0.007446808874607086,0.9326382850036025
1620232227305041700,6.903041748046875,-0.03601064005792141,-0.02657061153948307,0.731550479991734
1620232227315046000,6.9130458984375,0.07859086776450276,0.012808043646812439,0.4620980176754296
1620232227325049900,6.9230498046875,0.13905191233754158,0.08442775722444057,0.27905995635613795
1620232227335053600,6.933053466796875,0.15704174253642558,0.14871873534917832,0.14060644830316305
1620232227345057800,6.943057861328125,0.09821355986222624,0.17006722832620144,0.00042158641293644903
1620232227355060700,6.953060791015625,0.07237433133721351,0.1189735854268074,-0.14615692203715444
1620232227365065000,6.96306494140625,0.02643207985162735,-0.004125555497407913,-0.23994740476012227
1620232227375069000,6.97306884765625,-0.0630127748824656,-0.11701543709635734,-0.2864505049988627
1620232227385072600,6.98307275390625,-0.15095672353431583,-0.13880992027521133,-0.26231910330504177
1620232227395076900,6.993076904296875,-0.1293693072348833,-0.11037468390762806,-0.17282763295024633
1620232227405080800,7.003080810546875,-0.0815507404834032,-0.0769932233095169,-0.0849666864067316
1620232227415084800,7.013084716796875,-0.0581622661113739,-0.031767011138796805,-0.06773059718459844
1620232227425088800,7.0230888671875,0.06082432492747902,-0.006907879692316055,-0.10834478551521896
1620232227435091700,7.033091796875,0.02513619482219219,-0.02712473829090595,-0.1443549871817231
1620232227445095700,7.043095703125,-0.021231588599085808,-0.04454115251600742,-0.14400602761358022
1620232227455100000,7.053099853515625,-0.08890709459558128,-0.049045478197932244,-0.0885264247149229
1620232227465103400,7.063103271484375,-0.006582885521650314,-0.04173953909873962,-0.02660436767861247
1620232227475107000,7.073107177734375,0.023186229798197743,-0.014431260934472083,0.03434285297617316
1620232227485111300,7.083111328125,-0.07024550261497498,0.021447277176380158,0.03403217959180474
1620232227495115300,7.093115234375,-0.11605346019640564,0.03952420113682747,-0.033439912787079806
1620232227505119200,7.103119140625,-0.06279591726139187,0.024113866037130356,-0.1284228201650083
1620232227515122200,7.1131220703125,0.02403261749446392,0.012868833923339843,-0.19830752664357423
1620232227525126100,7.123126220703125,0.07636559293046594,-0.01788695434629917,-0.2070600112892687
1620232227535130400,7.13313037109375,0.08801730614900588,-0.06552841096520423,-0.1465896143659949
1620232227545134300,7.14313427734375,0.03820435070991516,-0.09288520444631576,-0.08680719970688223
1620232227555138300,7.15313818359375,0.012581249153614044,-0.10778408289253712,-0.0684850688137114
1620232227565142300,7.163142333984375,-0.0830278272986412,-0.0695949297517538,-0.02122033655270934
1620232227575146200,7.173146240234375,-0.09546353050172328,0.015832359904050824,0.03149915398284793
1620232227585150200,7.183150146484375,-0.04023775623366237,0.0688023180693388,0.05978051496297121
1620232227595153400,7.1931533203125,-0.030285686539858577,0.07778817307949065,0.03580430383086204
1620232227605157400,7.203157470703125,-0.021163053407520054,0.041401685446500774,-0.009196136759966611
1620232227615161000,7.2131611328125,-0.03775646081194281,-0.00834463449716568,-0.014952508329600095
1620232227625165300,7.223165283203125,-0.06976897114440798,-0.07527940512895584,-0.020264935524016616
1620232227635169300,7.233169189453125,-0.03173237821683288,-0.10600888991355896,-0.00415726580992341
1620232227645173200,7.24317333984375,0.004575637352466583,-0.07389525729417801,0.0036661212921142577
1620232227655177500,7.253177490234375,0.03963131477311253,-0.045397477084398265,-0.06522139084264636
1620232227665181400,7.263181396484375,0.07594298360422252,-0.01712181519269943,-0.146717186268419
1620232227675185200,7.27318505859375,0.09761588623002171,0.03513268817961216,-0.1229404432311654
1620232227685188400,7.283188232421875,-0.02818447647690773,0.0558703557819128,-0.02756663683950901
1620232227695192300,7.2931923828125,-0.11238251659870147,0.030661095723509786,0.07425488438680768
1620232227705196300,7.3031962890625,-0.08375248831138014,-0.02976853079795837,0.12993877768591044
1620232227715200300,7.3132001953125,-0.07082476380765437,-0.066519175568223,0.08911825312823057
1620232227725204200,7.323204345703125,-0.01170388179719448,-0.08862287082672118,-0.008953414045274256
1620232227735208200,7.333208251953125,0.04504807912483811,-0.08121639396250248,-0.1066255605071783
1620232227745212400,7.34321240234375,0.06632350686565042,-0.04611877709627151,-0.14432649173960088
1620232227755216400,7.35321630859375,0.08129004372060299,0.008668459624052048,-0.12491729626208543
1620232227765219300,7.36321923828125,0.09209902250468731,0.01979308022856712,-0.06997647641524672
1620232227775223300,7.373223388671875,0.0871931302845478,0.019410802912712095,0.0027909458927810192
1620232227785227300,7.383227294921875,0.026151509344577786,0.03426291960775852,0.11387450872212648
1620232227795231200,7.393231201171875,-0.027207594268769023,0.04366086255013942,0.1803947072036564
1620232227805235500,7.4032353515625,0.004474515065550804,0.04765431610047817,0.20087752326205371
1620232227815239200,7.4132392578125,0.0557528668820858,0.04015197764635086,0.18332959161177276
1620232227825243100,7.4232431640625,0.10479600699245929,0.02473229019641876,0.12966551370248197
1620232227835247400,7.433247314453125,0.15995309993848203,0.01666004289984703,0.10134338232055305
1620232227845250300,7.443250244140625,0.17135960622429847,0.028625205981731412,0.1063467435657978
1620232227855254300,7.453254150390625,0.06979191362857819,0.06164893918335437,0.1612057303480804
1620232227865258200,7.46325830078125,0.016318682116270064,0.10733283199369907,0.2849536905698478
1620232227875262200,7.47326220703125,-0.01241232232749462,0.14689970322847365,0.40910409411266446
1620232227885266400,7.483266357421875,0.023004297360032795,0.14323007480502128,0.4805529811680317
1620232227895270400,7.4932705078125,0.04463175340890884,0.0910451295375824,0.43902839999422427
1620232227905274400,7.5032744140625,-0.0012706044577062128,0.01957096191048622,0.2587418293401599
1620232227915278000,7.513278076171875,-0.0738216075360775,-0.05447217942178249,0.011460282299667597
1620232227925281300,7.52328125,-0.21862053909301757,-0.08810790704190731,-0.2501043493762612
1620232227935285200,7.53328515625,-0.3686374975591898,-0.04383446555137634,-0.37069369943663477
1620232227945289500,7.54328955078125,-0.40735038231313225,-0.016096563798189162,-0.3403695805825293
1620232227955293200,7.553293212890625,-0.3774386436522007,0.0042979894548654555,-0.2189833810560405
1620232227965297200,7.563297119140625,-0.26139877358973024,0.007126490879058837,-0.08999664339795709
1620232227975301400,7.57330126953125,-0.1450111130028963,-0.07457680981755256,-0.08607815477997065
1620232227985305300,7.583305419921875,-0.14450725513398646,-0.20466332541108131,-0.24061624393239617
1620232227995309300,7.593309326171875,-0.23362243952229617,-0.29559739578962324,-0.41761107956469057
1620232228005312300,7.603312255859375,-0.2550403444737196,-0.31103228080868717,-0.4854987670071423
1620232228015316200,7.613316162109375,-0.21608020696043967,-0.23594050720632076,-0.4385222040377557
1620232228025320200,7.6233203125,-0.16880977561101315,-0.09696282914876937,-0.3209850811548531
1620232228035324400,7.633324462890625,-0.09787921334132552,0.015375848308205604,-0.15132029614970088
1620232228045328400,7.643328369140625,-0.05594517458379268,0.05369827243983745,-0.02130363092198968
1620232228055332000,7.65333203125,-0.019156682021170855,0.029085224708914757,0.08558554895743727
1620232228065336300,7.66333642578125,-0.037169746965169906,-0.024663316613435744,0.11182122945412992
1620232228075340300,7.67334033203125,-0.04023541814610362,-0.05145604647099972,0.08795359326303005
1620232228085343500,7.683343505859375,0.0027262100934982297,-0.02816343368887901,0.058030602555722
1620232228095347500,7.693347412109375,-0.00441825483366847,0.03396948961913585,0.07768471270501613
1620232228105351200,7.70335107421875,-0.0002893383353948593,0.08897124587297439,0.1286604283131659
1620232228115355100,7.713355224609375,0.11195479270592332,0.09869827463924884,0.22914573249965905
1620232228125359400,7.723359375,0.1398291803203523,0.08957505698502063,0.3263778801091015
1620232228135363300,7.73336328125,0.11103753173053264,0.06107435416579246,0.37502661407440896
1620232228145367300,7.7433671875,0.05675298383533954,0.07182897241413592,0.36570728932619095
1620232228155371300,7.753371337890625,0.026804566425830123,0.07034604038000107,0.326286548563838
1620232228165374200,7.763374267578125,0.0425170993424952,0.05054769945442676,0.2610677880696952
1620232228175378400,7.77337841796875,0.08055018513873219,0.036736616244912146,0.1811370500035584
1620232228185382400,7.78338232421875,0.12416136332824826,0.0246259072124958,0.12595979105234145
1620232228195386400,7.793386474609375,0.10032675262391566,0.033298458489775654,0.06444967581778764
1620232228205390300,7.803390380859375,0.08446502049490809,0.06360358038246632,-0.009629705871641636
1620232228215394300,7.813394287109375,0.0709065968722105,0.07207096447646617,-0.044294776539504525
1620232228225398300,7.823398193359375,0.017658552417904136,0.01219838731586933,-0.07846841042861342
1620232228235402200,7.83340234375,-0.016941197928786275,-0.07286182259321212,-0.1101515426762402
1620232228245405200,7.8434052734375,-0.07311842770278454,-0.1406014798671007,-0.11558028972670435
1620232228255409200,7.8534091796875,-0.10032266097068786,-0.13452712838947772,-0.1214201017960906
1620232228265413400,7.863413330078125,-0.08886004058346152,-0.019860884767770766,-0.10433715730905532
1620232228275417300,7.873417236328125,-0.030191140124201772,0.01872866586744785,-0.041848114039748904
1620232228285421300,7.88342138671875,-0.02433364626765251,0.0327694661796093,-0.07340893508195877
1620232228295425300,7.89342529296875,-0.06187091137096285,0.035329672056436535,-0.1091166466705501
1620232228305429200,7.90342919921875,0.010923691204935311,-0.030288170757889747,-0.13615619089603423
1620232228315433200,7.91343310546875,0.0478401940613985,-0.12176701553761958,-0.12322744347900151
1620232228325436400,7.9234365234375,-0.017840777117013932,-0.149228438436985,-0.032361762161552905
1620232228335440400,7.9334404296875,-0.028888825353980064,-0.12390110495686531,0.06283712605461478
1620232228345444000,7.943444091796875,-0.026619857508689164,-0.04802841010987759,0.08779343426525592
1620232228355448300,7.9534482421875,-0.04010346232950687,0.043597734186053276,0.03716346335485577
1620232228365452300,7.963452392578125,-0.053526423004269595,0.1637035385131836,0.023191490495204924
1620232228375456300,7.973456298828125,-0.01147752569541335,0.2216729124009609,0.06290215411484242
1620232228385460500,7.98346044921875,0.05193550055101514,0.1537684199541807,0.1118324815005064
1620232228395464200,7.993464111328125,0.0725153472431004,0.01490939984023571,0.13358853236511348
1620232228405468200,8.00346826171875,0.017380319998413322,-0.10837561904489994,0.08755217285528778
1620232228415471400,8.013471435546874,-0.01786474251449108,-0.16174772827029227,0.0335458573795855
1620232228425475300,8.023475341796875,0.020651596754044294,-0.12866203574836255,0.014033493788540363
1620232228435479300,8.033479248046875,0.031040012038499116,-0.06353285323381423,-0.05273205775618553
1620232228445483300,8.043483154296876,0.03393149569630623,0.007477788534760475,-0.09834916894063353
1620232228455487200,8.0534873046875,0.04149696251451969,0.021250877821445465,-0.07728913751617074
1620232228465491000,8.063490966796875,0.04667246545627713,0.04659925408959389,-0.025204145491868255
1620232228475495000,8.073494873046876,-0.004707154777646065,0.07015840885341167,0.023123978216946124
1620232228485497900,8.083497802734374,-0.07253726681396365,0.08992986177206039,0.04724807338714599
1620232228495502000,8.093502197265625,-0.053935588327050206,0.06126899995505809,0.10360752786025404
1620232228505505800,8.103505859375,-0.026194179442524907,0.030257191097736356,0.16756898176968096
1620232228515509800,8.113509765625,-0.05510930828154087,0.02346095508635044,0.19386136088967323
1620232228525514000,8.123513916015625,-0.06424947707057,0.0009352350234985351,0.1801635287962854
1620232228535518000,8.13351806640625,-0.006495645629614591,-0.028721067571640013,0.09872940042987466
1620232228545522000,8.14352197265625,0.05253726583644747,-0.04406827430725097,0.009264818082004784
1620232228555526100,8.153526123046875,0.057646863935142754,-0.037410569983720776,-0.022877163849025963
1620232228565529900,8.16352978515625,0.00928644539192319,0.004611877709627152,-0.017041589563339947
1620232228575532800,8.17353271484375,-0.07303118781074881,0.06132160692512989,0.012766834853589534
1620232228585537000,8.183537109375,-0.08278042840883135,0.0873369226694107,0.029696634605526923
1620232228595541000,8.193541015625,-0.04157280422970652,0.05285831448435783,0.04635477780923247
1620232228605544700,8.203544677734374,-0.053769584110379215,0.028885318222641943,0.02929784454628825
1620232228615549000,8.213548828125,-0.12018354573845863,0.049287470260262485,0.03842383867949247
1620232228625553000,8.223552978515626,-0.04902063601762056,0.014907061752676963,0.010051438415050505
1620232228635556900,8.233556884765624,-0.03122968939170241,-0.00502455016374588,0.011848404834419488
1620232228645561000,8.24356103515625,-0.05524199475049972,-0.013334697869420051,0.010900310329347847
1620232228655563800,8.253563720703125,-0.07839417614862322,-0.06182312670648098,0.018894670084118843
1620232228665568000,8.263568115234374,-0.10710194584727287,-0.0960726023107767,0.061475774573534724
1620232228675572000,8.273572021484375,-0.12104147774204611,-0.06796236011385917,0.11389131372645496
1620232228685576000,8.283575927734375,-0.1488448459468782,-0.012177344527840613,0.11786007122695445
1620232228695580000,8.293579833984374,-0.18187807762920855,0.02558160050213337,0.07847323273420334
1620232228705583900,8.303583984375,-0.1561116220794618,-0.02009293995797634,0.011203384929150342
1620232228715587800,8.313587890625,-0.12566285393238066,-0.07587854006588458,-0.04973287594020366
1620232228725591800,8.323591796875,-0.09373816801384091,-0.12084931617081164,-0.09393602867349982
1620232228735595000,8.333594970703125,-0.06497019256055354,-0.11556932994127272,-0.19353271345719694
1620232228745599000,8.343598876953125,-0.0721527975410223,-0.07412789700627327,-0.30674452048689127
1620232228755603000,8.35360302734375,-0.09273308262452483,-0.04503215090334415,-0.3658592650175094
1620232228765607000,8.36360693359375,-0.027084406280517576,-0.09791910696029663,-0.34665260637477036
1620232228775611000,8.37361083984375,-0.007205401334166526,-0.162727386957407,-0.22146321517303585
1620232228785614800,8.38361474609375,-0.09699600076600909,-0.115440150603652,-0.0662464961066842
1620232228795619000,8.393619140625,-0.2031524824567139,-0.020598551392555235,0.07259352704584598
1620232228805622800,8.403622802734375,-0.2358100126944482,0.03860883985757828,0.16735446223616599
1620232228815626000,8.4136259765625,-0.23257322273030875,0.05267302104532719,0.2741224999539554
1620232228825630000,8.4236298828125,-0.23323943155407903,0.012565467062592506,0.30535043577998877
1620232228835634000,8.433634033203125,-0.20103110638856886,-0.06438859328031539,0.182781748470664
1620232228845638000,8.443637939453126,-0.12783274531736968,-0.12144026780128478,-0.013672697652131319
1620232228855641900,8.453641845703125,-0.07642799064218997,-0.11223404803872108,-0.1318725222274661
1620232228865645800,8.463645751953125,-0.0842510854832828,-0.0818950238764286,-0.15114347827807068
1620232228875650000,8.473650146484376,-0.15050094259083271,-0.06778524998128414,-0.10554536405503749
1620232228885654000,8.483654052734375,-0.17306407205462454,-0.055794367936253544,-0.054148354294896124
1620232228895656700,8.49365673828125,-0.1930855542115867,-0.004773790273070335,-0.0568735414750874
1620232228905661000,8.503660888671876,-0.19189795186221598,0.06734335143268108,-0.02936272647604346
1620232228915665000,8.513664794921874,-0.16717194527611134,0.1590928298473358,-0.0833262257233262
1620232228925668900,8.5236689453125,-0.13019099888131022,0.12102817986905574,-0.15085589350834488
1620232228935673000,8.533673095703126,-0.05473740622922778,-0.015765724408626555,-0.15066051706671713
1620232228945676800,8.5436767578125,-0.012159078218787908,-0.09032792117893695,-0.12697042939960956
1620232228955680800,8.5536806640625,0.03269815450906753,-0.1519219153046608,-0.09460106845349073
1620232228965685000,8.56368505859375,0.023504209706187246,-0.17658406287431716,-0.09749678989499806
1620232228975688000,8.57368798828125,0.015205167916417121,-0.14957564443945884,-0.16833119831383228
1620232228985692000,8.58369189453125,0.0022721827156841753,-0.08188742509186267,-0.26366657239124175
1620232228995695900,8.59369580078125,0.013147650864720344,-0.0008387889117002486,-0.3028225247375667
1620232229005699800,8.603699951171874,0.06162395087257027,0.07257716043293476,-0.24722280259057877
1620232229015703800,8.613703857421875,0.08729995165988802,0.12051496964991092,-0.11704787806123494
1620232229025708000,8.6237080078125,0.09302329774275421,0.08453063307702541,0.05909443239495158
1620232229035712000,8.6337119140625,0.04727613043785095,0.03151742029190063,0.1778150659739971
1620232229045715700,8.6437158203125,0.059754357608407735,0.004213818302750587,0.233825122487545
1620232229055719000,8.653718994140625,0.10107537903413176,0.011879822885990142,0.2691882584221661
1620232229065723000,8.663722900390624,0.12156827809512614,0.052207157099246976,0.30293752941936253
1620232229075727000,8.67372705078125,0.1380110249824822,0.1304331370741129,0.35321766397878523
1620232229085731000,8.68373095703125,0.19158596330359576,0.1806786387115717,0.4154821047119796
1620232229095734800,8.69373486328125,0.19088102990463374,0.20156068322062493,0.4619923653438687
1620232229105738800,8.70373876953125,0.14401508770287036,0.17123159593045711,0.47133360966295
1620232229115743000,8.713742919921875,0.09349822177812457,0.09767828394174576,0.47331060882434245
1620232229125747000,8.723746826171874,0.0516875171393156,0.024351766446232794,0.4410612209960818
1620232229135750000,8.73375,0.01867956602871418,-0.033767245045304296,0.40842137254551053
1620232229145753900,8.74375390625,0.013786533290147781,-0.019315525844693184,0.3930206820569932
1620232229155757800,8.7537578125,-0.0029869068562984463,0.04941606507599353,0.3538356497466564
1620232229165762000,8.763761962890625,0.03994447237551212,0.11785831766128539,0.31949893425032494
1620232229175766000,8.77376611328125,0.13737608807981014,0.15167466254532336,0.2721767727136612
1620232229185770000,8.78377001953125,0.17244097172021866,0.13111936577260494,0.19021116781905292
1620232229195774000,8.79377392578125,0.12356617391407489,0.08426818274855613,0.10726941136866808
1620232229205778000,8.80377783203125,0.05550196086093783,0.04708323821425438,0.03652487319037318
1620232229215780900,8.81378076171875,-0.013595394632220268,0.037301848912239075,0.04128156619817018
1620232229225785000,8.82378515625,-0.04568097020089626,0.017830255722999573,0.04664470066651702
1620232229235788800,8.833788818359375,-0.061877341111749404,-0.01794482201337814,-0.0035142917312681672
1620232229245792800,8.843792724609376,-0.064134764649719,-0.04652618885338306,-0.0832816559292376
1620232229255797000,8.853796875,-0.03055018269494176,-0.07425415373444556,-0.12799348883703351
1620232229265801000,8.863801025390625,0.020307605621963737,-0.08898527439832687,-0.15722995858490466
1620232229275805000,8.873804931640626,0.07153495790362357,-0.08540157069265841,-0.1785709989078343
1620232229285809000,8.883808837890625,0.0850314222060144,-0.06348316887319087,-0.1992990218989551
1620232229295811800,8.893811767578125,0.03889014101698995,-0.05562719467580318,-0.21378464336916803
1620232229305815800,8.90381591796875,-0.010070143115520477,-0.053441082808375354,-0.22863515262901782
1620232229315820000,8.913820068359374,-0.037744770374149084,-0.03358195160627365,-0.2058833687253296
1620232229325824000,8.923823974609375,-0.07599778253138065,0.0010275894820690155,-0.15096534523218869
1620232229335827700,8.93382763671875,-0.08933540301024913,0.008237082469463348,-0.09969546898305416
1620232229345832000,8.94383203125,-0.12706702164188027,-0.002915595185756683,-0.056104895190149544
1620232229355836000,8.9538359375,-0.13575520887970924,-0.02637538122832775,-0.038011604616791005
1620232229365840000,8.96383984375,-0.10156842324808239,-0.08123451414108276,-0.0810430832222104
1620232229375842800,8.9738427734375,-0.03066241089776158,-0.12855799085199832,-0.16838965050280094
1620232229385846800,8.9838466796875,0.003804652979969978,-0.14205577032864092,-0.2554848733708262
1620232229395851000,8.99385107421875,-0.017980477848649024,-0.1111877538561821,-0.29801980063095684
1620232229405855000,9.00385498046875,-0.04956409524455666,-0.0658656800955534,-0.27065686967000363
1620232229415859000,9.01385888671875,-0.06272212137281895,-0.028589550146460533,-0.23337430998012423
1620232229425863000,9.02386279296875,-0.10748188507556915,-0.0011626140385866165,-0.16387568020969628
1620232229435867000,9.033866943359374,-0.12139160635396838,0.0010807809740304947,-0.07115224219635129
1620232229445870800,9.043870849609375,-0.1123537288956344,0.00623275690972805,0.010078910943865775
1620232229455874800,9.053874755859376,-0.14733575655817985,-0.007757774519920348,0.04990983994230628
1620232229465877800,9.063877685546874,-0.09292845906615256,-0.06721475661695003,0.06343392290398478
1620232229475881700,9.0738818359375,-0.02104556450769305,-0.09731704941391944,0.05124035789370537
1620232229485886000,9.083885986328125,-0.014447189155966043,-0.09288520444631576,0.0055555883005261415
1620232229495890000,9.093889892578124,-0.028166210167855022,-0.02920388265252113,0.0023394027329981327
1620232229505894000,9.103893798828125,-0.02039557616636157,0.06833411603569985,0.047660015188902616
1620232229515898000,9.113898193359375,0.01309226741567254,0.12251754164397716,0.09032733665704727
1620232229525901800,9.12390185546875,0.03487900567948818,0.0948743324369192,0.1227662557080388
1620232229535904800,9.13390478515625,0.010157236877083777,0.038920974546670914,0.10356368871852754
1620232229545909000,9.143908935546875,-0.029380700524151322,-0.039375732576847074,0.04338409143537283
1620232229555913000,9.153912841796876,-0.0077729720890522,-0.07965338242948054,-0.0159456110201776
1620232229565916700,9.163916748046875,0.03368818845972418,-0.06663666446805,-0.03007277444154024
1620232229575921000,9.1739208984375,0.022513298972696064,-0.03537292667627334,-0.004346504771709442
1620232229585924900,9.1839248046875,-0.005967968493700027,0.010263619861006736,0.01361599902883172
1620232229595928800,9.1939287109375,-0.011400514936447143,0.028845570734143254,0.011573533415794372
1620232229605933000,9.20393310546875,-0.023080431336164473,0.010421440771222115,0.0035262744300067423
1620232229615935700,9.213935791015626,-0.005268441922217607,-0.003961304846405982,-0.029690643256157636
1620232229625940000,9.22393994140625,0.019649872365593908,-0.023686580535769462,-0.045266836442053315
1620232229635944000,9.23394384765625,0.048770752909779544,-0.02363864974081516,-0.04804156185239553
1620232229645948000,9.243947998046876,0.07387611420229077,0.0012654898911714553,-0.03908770941570401
1620232229655952000,9.253951904296875,0.05546469759047031,0.015420856493711471,-0.02163914648666978
1620232229665955800,9.263955810546875,0.01979191118478775,0.029831074640154838,0.021497546058893202
1620232229675959800,9.273959716796876,0.011950111643224954,0.013106734332442282,0.09899009719267488
1620232229685963800,9.2839638671875,0.01812733897343278,0.0010959785431623459,0.1853532063938677
1620232229695968000,9.293968017578125,0.024487375524640084,0.01438917535841465,0.1894629798002541
1620232229705970700,9.303970703125,0.021460721179842948,0.004147182807326316,0.11052987446933984
1620232229715975000,9.313974853515624,0.026929654110223054,-0.002728548181056976,0.02846957702860236
1620232229725979000,9.323978759765625,0.007498246800899505,-0.0009720599025487899,-0.03523410272747278
1620232229735982800,9.33398291015625,0.030153146201372143,-0.0006646013885736465,-0.06950199077129364
1620232229745986800,9.34398681640625,0.019108751226216553,0.005183540117740631,-0.07975187436789273
1620232229755991000,9.353990966796875,-0.03807400232851505,0.025767478463053703,-0.07435688345655798
1620232229765994800,9.363994873046876,-0.06226677882075309,0.028041268613934515,-0.02607785958647728
1620232229775998700,9.373998779296874,-0.084195702034235,-0.0037871173232793807,0.04828647652417421
1620232229786002000,9.384001953125,-0.0697549426190555,-0.03125964613854885,0.09412409859150647
1620232229796006000,9.394005859375,-0.018657208066433666,-0.044376317343115805,0.07793664163947105
1620232229806009900,9.404009765625,-0.0007322597973048687,-0.03286591229140758,0.016852204471081496
1620232229816013800,9.414013916015625,-0.006118044488877057,-0.022957681739330292,-0.05509001905918121
1620232229826017800,9.424017822265625,-0.016218728873133657,-0.034730537119507784,-0.05189765275865793
1620232229836022000,9.43402197265625,-0.05392258271500468,-0.030813655936717987,0.0013785948768258094
1620232229846026000,9.44402587890625,-0.06398702674210072,-0.023566753548383713,0.0480690343812108
1620232229856030000,9.454030029296876,-0.08132219242453574,-0.0038262802898883816,0.06538958701640367
1620232229866033000,9.464032958984374,-0.06449146913290023,0.0413876569211483,0.06864712750762701
1620232229876036900,9.474036865234375,-0.01306654845252633,0.05904840129613876,0.053490036516636606
1620232229886040800,9.484040771484375,0.02125847660601139,0.023891163197159764,0.037767128336429596
1620232229896045000,9.494045166015624,0.0008979717530310154,-0.004753916528820991,0.033319355147331954
1620232229906048800,9.504048828125,-0.05650806916356087,-0.007125906357169151,0.025591098982840774
1620232229916052700,9.514052734375,-0.03985547891780734,-0.0004582651615142822,0.04684504554420709
1620232229926057000,9.524056884765624,-0.0011952011339366436,0.013303718209266662,0.09915040232092141
1620232229936061000,9.53406103515625,-0.006808364840596914,0.002775309932231903,0.11852701070308684
1620232229946064000,9.54406396484375,-0.03075388857349753,-0.031920740395784374,0.0793114371240139
1620232229956067800,9.55406787109375,-0.013960720813274383,-0.0399105701059103,0.03479951070249081
1620232229966071800,9.56407177734375,0.01887494247034192,-0.020290508356690405,0.02645984464138746
1620232229976075800,9.57407568359375,-0.0452174443423748,0.015840543210506437,0.017651245894283057
1620232229986080000,9.584080078125,-0.09227598650678992,0.034818799924850465,0.0075472005091607565
1620232229996084000,9.594083984375,-0.04083119208216667,0.00924304464161396,0.010510580359399318
1620232230006087700,9.604087646484375,-0.002449146717786789,-0.010116320344805717,-0.006768471221625804
1620232230016091000,9.6140908203125,-0.01860606240108609,-0.03466156353652477,-0.041326866644620895
1620232230026094800,9.6240947265625,-0.00494023288115859,-0.01874620152413845,-0.06632438364848495
1620232230036099000,9.63409912109375,0.04247764411494136,0.017403554743528366,-0.02179813644066453
1620232230046102800,9.644102783203126,0.10319573218896984,0.05022504337131977,0.059781830137223005
1620232230056106800,9.654106689453124,0.07702376457825302,0.06603051526844501,0.12332608154788613
1620232230066111000,9.664111083984375,-0.023942454992979763,0.04065875812470913,0.11262246283441782
1620232230076115000,9.674114990234376,-0.02559577515795827,-0.014753332495689392,0.08333630872592329
1620232230086119000,9.684118896484375,-0.022373744371533392,-0.03458499116897583,0.07814122430086136
1620232230096123000,9.694122802734375,-0.03728475164696574,-0.019711247164011,0.07452741771787405
1620232230106125800,9.704125732421875,-0.022579349946230648,0.026874562922120093,0.07053381803706288
1620232230116129800,9.7141298828125,0.004791325929760932,0.06403437301516532,0.10491934111118316
1620232230126134000,9.724134033203125,0.03717091600894928,0.09377835389375686,0.14742694197297096
1620232230136138000,9.734137939453126,0.047052843075990676,0.08507540747821331,0.21386647643372414
1620232230146141700,9.7441416015625,0.0770512371070683,0.04532733445763588,0.27217706497460603
1620232230156146000,9.75414599609375,0.0853225141070783,0.004955576580762863,0.2918945957489312
1620232230166150000,9.76414990234375,0.03623568098545074,-0.02495148590505123,0.24127587688490748
1620232230176153900,9.77415380859375,0.012390695017576217,-0.03823416132628917,0.18943916053324936
1620232230186157000,9.784156982421875,0.04300020668432116,-0.02780629081428051,0.14386165070682763
1620232230196160800,9.794160888671875,0.03735986270979046,0.004998246678709984,0.09044088003411889
1620232230206164700,9.804164794921874,0.024614509035646916,0.030086510705947873,0.03419014663249254
1620232230216169000,9.8141689453125,-0.028018764521181582,0.04340659552812576,-0.002778670933097601
1620232230226173000,9.8241728515625,-0.047117578875273465,0.04123568122982978,-0.023916882160305974
1620232230236177000,9.834177001953124,-0.010626023432612418,0.024262334597110746,-0.013042290794104338
1620232230246180900,9.844180908203125,0.01827478462010622,0.008222469422221183,0.00817336958348751
1620232230256184800,9.854184814453125,0.03704246732369065,-0.0006476502537727355,-0.002176174995303154
1620232230266188000,9.86418798828125,0.007336334237456321,-0.013330021694302557,-0.020741320864111183
1620232230276192000,9.87419189453125,0.010727145719528198,-0.026124621337652205,-0.06606120266765356
1620232230286196000,9.884196044921875,0.008434212476760149,-0.0395662867128849,-0.12456629086732864
1620232230296199700,9.89419970703125,-0.010148469048738479,-0.045103462573885915,-0.1503361074179411
1620232230306204000,9.904203857421875,-0.00019859131202101707,-0.04189034574627876,-0.17713672832101582
1620232230316207900,9.914207763671875,-0.005912000522762537,-0.05014379482865333,-0.18374664798006415
1620232230326211800,9.9242119140625,-0.05391206132099032,-0.06651742200255394,-0.17958061434179542
1620232230336216000,9.934216064453125,-0.06646905281618237,-0.062193129062652584,-0.14399725978523492
1620232230346218800,9.94421875,-0.07249459671601653,-0.052589434415102,-0.1079467261083424
1620232230356223000,9.954222900390626,-0.05283011130318045,-0.038005028745532035,-0.07609715125262737
1620232230366227000,9.96422705078125,-0.039897710624337196,-0.045778000834584234,-0.03475245669037103
1620232230376231000,9.97423095703125,0.0065332011610269546,-0.05281856699585914,-0.021468319964408872
1620232230386235000,9.98423486328125,0.03467749175801873,-0.05092646963894367,-0.04524067908748984
1620232230396238800,9.99423876953125,0.03411035939455032,-0.016246785923838613,-0.11128829162120818
1620232230406242800,10.004242919921875,0.012393033105134963,0.0128881231456995,-0.1854272945433855
1620232230416246800,10.014246826171876,0.022816811963915825,0.017841361638903618,-0.1859877049051225
1620232230426250000,10.02425,0.00579509614482522,0.013255787414312362,-0.13626914975121618
1620232230436253700,10.034253662109375,-0.06188157889544964,0.009175824624300003,-0.06502820635810494
1620232230446258000,10.0442578125,-0.11448621087968348,0.007649053448438644,0.04701353397890925
1620232230456262000,10.054261962890624,-0.06521452271044254,0.0060620765179395675,0.17144596933349965
1620232230466266000,10.06426611328125,-0.037521044620871545,0.014128478595614433,0.24817908040210604
1620232230476270000,10.07427001953125,-0.018719167386740444,-0.008471475747227668,0.26379341364130376
1620232230486274300,10.0842744140625,-0.022893238200992344,-0.026045710882544516,0.18915961293950675
1620232230496278000,10.094278076171875,-0.009032032239437103,-0.04476736248731613,0.05805266825705766
1620232230506281200,10.10428125,0.03712415425777435,-0.03987842140197754,-0.04387260560467839
1620232230516285200,10.11428515625,0.057297027584165335,-0.011334463962912558,-0.09306830592826008
1620232230526289200,10.1242890625,0.043324177941679955,0.01483048938512802,-0.10019070515409112
1620232230536293000,10.134293212890626,-0.017910335221886634,0.0325865108281374,-0.08111585619747638
1620232230546297000,10.144297119140624,-0.07621157141253351,0.023109657430648804,-0.04802037293389439
1620232230556301000,10.154301025390625,-0.08297156706675887,0.01821720921397209,-0.0076778411515057085
1620232230566305300,10.16430517578125,-0.04926335873231291,0.004963759887218475,0.02474208093807101
1620232230576309200,10.174309326171874,-0.025615356641262767,-0.007996843972802162,0.03000277794525027
1620232230586312000,10.18431201171875,-0.024223025500029326,-0.026454291683435438,-0.034916561210900546
1620232230596316200,10.194316162109375,-0.027902006273716688,-0.04189034574627876,-0.09326806628406047
1620232230606320000,10.204320068359374,-0.010770984861254692,-0.013912205496430395,-0.09706190560907126
1620232230616324000,10.214323974609375,0.004071341092139482,-0.005994271978735924,-0.03592749181911349
1620232230626328300,10.224328369140625,-0.0005886135429143905,-0.008509469670057297,0.035547990982234476
1620232230636332000,10.23433203125,-0.0413876569211483,-0.007478373056650161,0.09698562550246714
1620232230646336000,10.2443359375,-0.08120353448092937,-0.02497837391197681,0.1143694526322186
1620232230656340200,10.25434033203125,-0.06091814069077372,-0.026662381476163864,0.09937047481238842
1620232230666343200,10.26434326171875,-0.03903437179327011,-0.022144027268886566,0.03885492357313633
1620232230676347100,10.27434716796875,-0.02011675922498107,-0.001740121665596962,-0.028186814564466475
1620232230686351000,10.28435107421875,0.02484218031167984,0.014056582403182983,-0.06375804029181599
1620232230696355000,10.29435498046875,0.04614961062595248,0.01632978803217411,-0.047832595276832576
1620232230706359000,10.304359130859375,0.03059022244438529,0.02525952894091606,-0.009526683888584376
1620232230716363300,10.31436328125,-0.0055991351813077924,0.01674012239873409,0.01207680676281452
1620232230726367200,10.3243671875,-0.05286766683459282,-0.005147884282469749,0.00523673160970211
1620232230736371000,10.334370849609375,-0.08757438468709587,-0.03842588450610637,0.007861381024867296
1620232230746374100,10.3443740234375,-0.06411503703594207,-0.04166121316552162,0.011474018564075232
1620232230756378000,10.354378173828126,-0.03476458551958203,-0.04381576085090637,0.000976151555776596
1620232230766382300,10.36438232421875,-0.054695612914115184,-0.04093640602231025,-0.01982026049643755
1620232230776386000,10.374385986328125,-0.019919775348156688,-0.009285714739561081,-0.01903188659772277
1620232230786390000,10.38439013671875,0.000974544120579958,0.013622867161035538,-0.0017284312278032302
1620232230796394000,10.39439404296875,0.007375643334537744,0.02233107427358627,-0.015001169776916503
1620232230806398200,10.404398193359375,0.03902750366106629,0.01897884123623371,-0.026368951487541196
1620232230816402200,10.414402099609376,0.06991305579021573,-0.00048632221221923825,-0.03789557702168822
1620232230826405000,10.424405029296874,0.06229834300279617,-0.027400048100948333,-0.06951879577562213
1620232230836409000,10.4344091796875,0.0001803250029683113,-0.047692894545197484,-0.08819003236740827
1620232230846413000,10.4444130859375,-0.022256401602178812,-0.03942541693747043,-0.061093058866262435
1620232230856417300,10.454417236328124,-0.043284576583653686,-0.0256236860781908,-0.03452347024008631
1620232230866421200,10.464421142578125,-0.051793607862293714,0.005803717842698097,-0.02006166803687811
1620232230876425000,10.474425048828126,-0.047330929365009065,0.03033025633394718,0.003754822488874197
1620232230886429200,10.48442919921875,-0.05011851425692439,0.02459375850856304,0.03249985545799136
1620232230896433200,10.49443310546875,-0.0227862706951797,-0.009472761744260788,0.06106836281642317
1620232230906436000,10.50443603515625,0.02066810949742794,-0.013225392276048659,0.08118263782337308
1620232230916440000,10.514440185546874,0.044563364347815514,0.025706688186526296,0.07180676058232784
1620232230926444000,10.524444091796875,0.027652561557292937,0.053846740999817844,0.03745397073403001
1620232230936448000,10.534447998046875,0.027436726849526166,0.05668108764290809,0.017146218981593846
1620232230946452200,10.5444521484375,0.06085808106660843,0.04983107561767101,0.045633477797359226
1620232230956456200,10.554456298828125,0.0036029929280281064,0.03211304809749126,0.07357873869091272
1620232230966460200,10.564460205078126,-0.034103199001401664,0.013848492610454559,0.08932605066001414
1620232230976464100,10.574464111328124,-0.009694295540452003,-0.0107183778911829,0.10197115883007644
1620232230986467000,10.584467041015625,-0.009283376652002334,-0.0076256725728511806,0.12326456061899661
1620232230996471000,10.594470947265625,-0.024435353076457975,-0.01649929938018322,0.11109876039847731
1620232231006475300,10.604475341796874,-0.04940846629142761,-0.03684533731639385,0.0722149029918015
1620232231016479000,10.61447900390625,-0.04425926683470607,-0.04685001398026943,0.006888298209011554
1620232231026483000,10.62448291015625,-0.008321984273940325,-0.04633154306411743,-0.06780220111608505
1620232231036487200,10.634487060546874,0.03574409807622433,-0.03343640565574169,-0.12153320678174495
1620232231046491100,10.6444912109375,0.05467910017073154,-0.03552899402081966,-0.15419672836884854
1620232231056495000,10.6544951171875,0.03508665708079934,-0.03348024479746818,-0.1622616691417992
1620232231066498000,10.664498046875,-0.004962006321549415,-0.03964285908043384,-0.1399000535994768
1620232231076502000,10.674501953125,-0.03354571124911308,-0.012449147206544876,-0.08735840384885668
1620232231086506200,10.68450634765625,-0.008511223235726355,0.023443419429659842,-0.04420432177707553
1620232231096510200,10.69451025390625,-0.015228402661532163,0.026412790629267692,-0.034007191281020636
1620232231106514200,10.70451416015625,-0.06222337807044386,-0.002279050847887993,-0.07346417240053414
1620232231116518100,10.71451806640625,-0.08242503909990191,-0.02049859814941883,-0.10428805747032165
1620232231126522000,10.724522216796874,-0.047629620050638914,-0.028006781822443007,-0.10460253024697304
1620232231136526000,10.734526123046875,0.008126607832312583,-0.044449382579326624,-0.08567176593616604
1620232231146529300,10.744529296875,0.01768894755616784,-0.07723053919672966,-0.06019684067890048
1620232231156533200,10.754533203125,0.022802783438563345,-0.08220131334662437,-0.054451136633753776
1620232231166537000,10.764536865234374,0.013480974472314118,-0.05277472785413265,-0.04554857599288225
1620232231176541200,10.774541259765625,0.03445055113434791,-0.006457213315367698,-0.04772913490235805
1620232231186545200,10.784545166015626,0.0314490312308073,0.016675824990868567,-0.05438391661643981
1620232231196549000,10.794549072265625,0.019908815562725064,0.04037760309576988,-0.0615289660654962
1620232231206553300,10.80455322265625,0.032507746503502126,0.04009410997927189,-0.042204964653402566
1620232231216557000,10.81455712890625,0.02196706326678395,0.013010872742533684,-0.03347206149101257
1620232231226560000,10.82456005859375,-0.03002937369123101,-0.0109492640376091,-0.024485183567553758
1620232231236564200,10.834564208984375,-0.023310294569283723,-0.032417584002017975,0.01125467672497034
1620232231246568200,10.844568115234376,0.004022679644823074,-0.056008302947878834,0.024015374098718165
1620232231256572000,10.854572021484374,0.004420300660282373,-0.05818330889940262,0.012979893082380295
1620232231266576100,10.864576171875,-0.02747618207708001,-0.031851182290911675,-0.031434856574982406
1620232231276580000,10.874580078125,-0.039934973894804715,-0.008270400217175483,-0.06301803557947278
1620232231286584000,10.884583984375,0.004133884934335947,0.007426350608468055,-0.05646276871711015
1620232231296588300,10.89458837890625,0.02462736851722002,0.028390228182077405,-0.017193857515603303
1620232231306591000,10.904591064453125,0.021721271812170744,0.047341596889495845,0.011395692630857228
1620232231316595200,10.91459521484375,0.018628712624311445,0.0358498965382576,0.03291501213014126
1620232231326599200,10.92459912109375,0.0005254851788282394,0.002498246556520462,0.06308686303198337
1620232231336603100,10.93460302734375,-0.03205152716860175,-0.019272855746746063,0.08458046356812118
1620232231346607000,10.944607177734374,-0.02627133633196354,-0.01525660584270954,0.1220256664738059
1620232231356611000,10.954611083984375,-0.0008583703950047493,-0.006520926201343536,0.1354037650935352
1620232231366615000,10.964614990234375,0.012900398105382918,0.0028296704679727554,0.13495952845737338
1620232231376619000,10.974618896484374,-0.0047239597819745535,0.020295769053697586,0.09970613650754094
1620232231386622200,10.984622314453125,-0.0016762626491487024,0.01625263114273548,0.04774944703802466
1620232231396626200,10.994626220703125,-0.007017769807577133,0.034785482177138324,0.027554946401715276
1620232231406630100,11.004630126953124,0.0023791502214968205,0.02649170108437538,0.02039557616636157
1620232231416634000,11.014634033203125,0.023730273547023534,-0.022846038058400152,-0.008688625629246235
1620232231426638000,11.02463818359375,0.021417466560006142,-0.03678396251797676,-0.051693362358212466
1620232231436642000,11.03464208984375,0.011706950537115336,-0.014210311660170553,-0.08322422665357589
1620232231446646300,11.044646240234375,-0.02090776347219944,0.006858195331692695,-0.07859715137481689
1620232231456650000,11.05464990234375,-0.02136778219938278,0.016482932767271995,-0.03775046946257352
1620232231466654000,11.064654052734374,-0.028978257203102112,0.01787175677716732,-0.009874620543420315
1620232231476657200,11.0746572265625,-0.030540245822817086,-0.010427870512008667,-0.05065744343921542
1620232231486661000,11.0846611328125,-0.03411035939455032,-0.0317757789671421,-0.09696516723632811
1620232231496665300,11.094665283203126,0.010782529168576001,-0.03107610626518726,-0.08961363542973995
1620232231506669000,11.1046689453125,0.045601621354371305,0.007436287480592727,-0.016406506530195472
1620232231516673000,11.114673095703125,0.035448476130515334,0.020499767193198203,0.04483911254927516
1620232231526677200,11.12467724609375,-0.03186506468579173,-0.005461188015341759,0.08905424798130988
1620232231536681200,11.13468115234375,-0.051957566252350804,-0.033061142602562904,0.12116115859895944
1620232231546685200,11.144685302734375,-0.06654445613995194,-0.02935468930006027,0.13245207568109035
1620232231556688100,11.154688232421876,-0.04544482335746288,-0.010261866295337676,0.08887363071739673
1620232231566692000,11.164692138671874,0.0007845745064318179,-0.026195348486304282,0.013017302483320236
1620232231576696000,11.174696044921875,0.03377908161357045,-0.01620996104478836,-0.031161738722026346
1620232231586700300,11.1847001953125,0.020782675787806508,-0.00011982698738574981,-0.0608916910752654
1620232231596704000,11.1947041015625,-0.009561462941020726,0.013551555490493774,-0.012359569226950405
1620232231606708000,11.2047080078125,-0.0019641396798193455,0.03744622581899166,0.058858577812463043
1620232231616712200,11.214712158203126,-0.021458236961811778,0.03676876494884491,0.07694383120983839
1620232231626716200,11.224716064453125,-0.03659910747036338,0.02509820089936256,0.03518836388960481
1620232231636719000,11.234718994140625,-0.03126549135744572,-0.011252630898356437,-0.03703896019235253
1620232231646723000,11.24472314453125,-0.01873553399965167,-0.0475789127767086,-0.0936402605973184
1620232231656727000,11.25472705078125,-0.033212387641519306,-0.04832593175172806,-0.12558657382577657
1620232231666731000,11.26473095703125,0.0128064362116158,-0.028317162945866583,-0.10909677292630075
1620232231676735200,11.2747353515625,0.0435715768314898,0.014921090278029441,-0.061209817113727326
1620232231686739200,11.2847392578125,0.022912673553824422,0.042564299485087394,-0.01095028695091605
1620232231696743000,11.294742919921875,-0.02186564871892333,0.0180599728256464,0.05614785754904151
1620232231706747100,11.3047470703125,-0.04275353844687342,-0.009865560454130172,0.10291560007333755
1620232231716750000,11.31475,-0.02053527689799666,-0.04250818538367748,0.07509791108220815
1620232231726754300,11.32475439453125,0.006912555867433548,-0.05765373206734657,-0.000730067840218544
1620232231736758300,11.33475830078125,-0.001319704296439886,-0.051743631240725514,-0.08231631802842021
1620232231746762000,11.344761962890624,0.028725743746757505,-0.043456864410638806,-0.13392273275554178
1620232231756766200,11.35476611328125,0.05686521203815937,-0.008496610188484192,-0.12413067592903972
1620232231766770200,11.364770263671875,0.019221417820453644,0.022685879060626028,-0.11007687000483274
1620232231776774100,11.374774169921874,0.01322188514471054,0.042599955320358276,-0.06612550007551908
1620232231786778000,11.384778076171875,0.007814473143219947,0.04092939175963402,0.00591316956654191
1620232231796781000,11.394781005859375,-0.025898265235871076,0.03426233508586883,0.057125032018125056
1620232231806785000,11.404784912109376,-0.056355362819880246,0.035602643778920175,0.11100801337510346
1620232231816789200,11.414789306640625,-0.04984612705633044,0.012632102558016776,0.16591668451800942
1620232231826793200,11.424793212890625,-0.029672815338522195,0.005156067588925361,0.18205913328453896
1620232231836797200,11.434797119140624,0.011975099954009055,0.004811784195899963,0.14771481900364158
1620232231846801200,11.44480126953125,0.017533903124928474,0.0009200374543666839,0.0985467373393476
1620232231856805000,11.45480517578125,0.027163316735625265,0.01942716952562332,0.08530541684180498
1620232231866809000,11.46480908203125,0.030451690756529568,0.02883621838390827,0.11140402695536612
1620232231876812300,11.474812255859375,0.04174845305755734,0.033892332729697223,0.14232874205112456
1620232231886816000,11.48481591796875,0.06039528586044907,0.025291677644848822,0.12888415406644343
1620232231896820000,11.494820068359376,0.012420067242532968,-0.012843114960193634,0.060410921820998185
1620232231906824200,11.50482421875,-0.04666749702021479,-0.024062428110837936,-0.0073867492504417894
1620232231916828200,11.514828125,-0.07071954986751079,-0.017906828090548513,-0.033847616805136205
1620232231926832000,11.52483203125,-0.010060060112923383,-0.014943886631727217,0.021775632347911595
1620232231936836400,11.53483642578125,-0.004106266275048256,-0.002596446233987808,0.08021423118263482
1620232231946840000,11.544840087890625,-0.021067191817611453,-0.000014613047242164611,0.059765025132894514
1620232231956843300,11.55484326171875,0.017990414720773697,0.0026338556349277493,0.00855769272595644
1620232231966847200,11.56484716796875,0.04367328364029526,0.00006955810487270355,-0.03335588776543736
1620232231976851200,11.574851318359375,0.02837634578719735,-0.00015957447588443754,-0.06210851951912045
1620232231986855000,11.58485498046875,0.0038648587346076964,-0.0006774608701467514,-0.06560483720228076
1620232231996859100,11.594859130859374,-0.011097148075699805,-0.0014922843843698502,-0.06574409954249859
1620232232006863000,11.604863037109375,-0.04419920721054077,-0.01414426068663597,-0.07667188240066171
1620232232016867000,11.6148671875,-0.031670418896526095,-0.008283844220638275,-0.0860036282390356
1620232232026871300,11.624871337890625,0.019328969848155974,-0.019017419680953024,-0.1000609412945807
1620232232036874000,11.6348740234375,-0.013154665127396582,-0.041138650596141815,-0.10139671994298696
1620232232046878200,11.644878173828126,-0.038216771800071,-0.07345686587691307,-0.10270590284541249
1620232232056882200,11.654882080078124,-0.04264452511444688,-0.07640285620093346,-0.09941635978072881
1620232232066886100,11.66488623046875,-0.02330649517700076,-0.055717211046814916,-0.09780556358322501
1620232232076890000,11.67489013671875,0.013179945699125527,-0.03332183936536312,-0.08587517955377698
1620232232086894000,11.68489404296875,0.03866963013410568,-0.015676292559504507,-0.07274199560582638
1620232232096898000,11.69489794921875,0.020031126768141984,0.007528057417273521,-0.06491320167630911
1620232232106902000,11.704902099609376,-0.009362725498527288,0.013196750703454017,-0.03649930035769939
1620232232116905200,11.7149052734375,-0.03023775574490428,0.0013180968612432479,-0.018039076168090105
1620232232126909000,11.724908935546875,-0.01011748938858509,-0.010962123519182205,-0.024293752648681402
1620232232136913200,11.7349130859375,0.001982844380289316,-0.020305705925822256,-0.051603784378618
1620232232146917000,11.744917236328124,0.013564999493956564,-0.019505495458841324,-0.05435863604471087
1620232232156921000,11.754921142578125,0.04605564873218536,-0.0026952304333448408,-0.018482874412834645
1620232232166925300,11.76492529296875,0.062408817639946934,0.00941080242395401,0.011771540205925702
1620232232176929300,11.77492919921875,0.03645312312841415,0.0233972422003746,0.028639672898501157
1620232232186933000,11.78493310546875,0.024341391182690856,0.037220015847682954,0.027722704184055327
1620232232196936200,11.794936279296875,-0.015643120942264794,0.016417466315627096,0.039690351483970876
1620232232206940200,11.804940185546876,0.002713496742397547,0.0002297171026468277,0.06754077370092272
1620232232216944000,11.814944091796875,0.009930003992468118,0.000083002108335495,0.08484072193950414
1620232232226948000,11.824947998046875,-0.01922580173462629,-0.007282558223605156,0.05825929674506187
1620232232236952000,11.8349521484375,0.012245587458461523,-0.009227847072482108,0.004483721285313368
1620232232246956000,11.8449560546875,0.028502310254424807,-0.023894670328497885,-0.02945785741358995
1620232232256960300,11.854960205078125,0.04061389606967568,-0.016786884149909018,-0.022434242387115954
1620232232266964200,11.864964111328124,0.05190320571660995,0.0008627543091773986,-0.014963468115031719
1620232232276967200,11.87496728515625,0.0045639469146728515,0.002305938854813576,-0.005556026691943407
1620232232286971100,11.88497119140625,-0.017567659264057872,0.00803834502696991,0.009313479529321192
1620232232296975000,11.89497509765625,-0.03644318625628948,0.012258593070507048,0.036271629081666465
1620232232306979000,11.90497900390625,-0.008050181595236062,0.022380174112319944,0.0652561698950827
1620232232316983300,11.9149833984375,0.007372574594616889,-0.0010468787044286727,0.08125891792997718
1620232232326987000,11.924987060546876,-0.0145873282790184,-0.015824176597595215,0.046186289374530315
1620232232336991000,11.934990966796875,-0.007702683331817388,-0.030025135907530785,0.00044423663616180415
1620232232346995200,11.9449951171875,0.006514058069139719,-0.04117196834385395,-0.037864158970117565
1620232232356998100,11.954998046875,0.011567688196897507,-0.04571311890482902,-0.08406929917559028
1620232232367002000,11.965002197265624,0.0055881753958761686,-0.03661094403862953,-0.11580416161045431
1620232232377006000,11.975006103515625,-0.01739069526195526,-0.01858838061392307,-0.1382319742567837
1620232232387010000,11.985010009765626,-0.009382014720886945,0.0014659808993339539,-0.1433753284946084
1620232232397014000,11.995013916015624,0.011304653346538542,0.034162381842732424,-0.11632643191888928
1620232232407018200,12.005018310546875,-0.02644537772461772,0.04182663286030292,-0.07721753358468413
1620232232417022200,12.015022216796876,-0.0435452733464539,0.005582768568396568,-0.03718830553516746
1620232232427026000,12.02502587890625,-0.031884061647206544,-0.05148351899981499,0.01059869703426957
1620232232437029000,12.035029052734375,-0.0438712904304266,-0.09714578450024128,0.031918840699642896
1620232232447033000,12.045033203125,-0.022324060010910033,-0.10908581314086914,0.006404752475768327
1620232232457037300,12.055037353515624,0.023590134423971176,-0.05466916329860687,-0.038734219802916046
1620232232467040800,12.065040771484375,0.034322686970978976,0.013446341550350188,-0.05672375774085522
1620232232477044700,12.075044677734375,0.032105010921508075,0.06040390755832195,-0.05598930598646402
1620232232487049000,12.085049072265624,0.02074000568985939,0.07428805600404739,0.004031009081751108
1620232232497053000,12.095052978515625,-0.008749708166718483,0.05930500640571117,0.08352817803621292
1620232232507057000,12.105056884765625,-0.04355915574133396,0.02006722099483013,0.08829583082944155
1620232232517060900,12.115060791015624,-0.043623453149199486,-0.020280571484565732,0.050319735917448996
1620232232527063800,12.125063720703125,-0.0239244809448719,-0.03296645005643368,0.052097559244930744
1620232232537067800,12.13506787109375,-0.019411533565074204,-0.01016717374920845,0.06131254683583975
1620232232547072000,12.145072021484374,0.005767477485537529,-0.0006733692169189453,0.07863412238433956
1620232232557076000,12.155075927734375,0.0019178163200616835,0.017505846074223518,0.10267477705478667
1620232232567079700,12.16507958984375,-0.0047784664481878274,0.013438742765784262,0.11451543697416781
1620232232577084000,12.175083984375,0.0029242168836295605,0.0039010990917682647,0.09315116190612316
1620232232587088000,12.185087890625,-0.003535042258352041,-0.0064817632347345345,0.0695186496451497
1620232232597091800,12.195091796875,0.015699088913202285,-0.01647884111404419,0.03475026473328471
1620232232607094800,12.2050947265625,0.03640533846393228,-0.0228875391125679,0.021539339374005793
1620232232617098800,12.2150986328125,0.010759440553933382,-0.008421791386604309,0.018783757055550812
1620232232627101000,12.225100830078125,0.010257336250692606,-0.008403671208024025,0.019326485630124807
1620232232637105000,12.23510498046875,0.002385579962283373,0.005667524242401123,0.01421791044473648
1620232232647107800,12.24510791015625,-0.007114800441265106,0.03021685908734798,-0.0036211131066083905
1620232232657111800,12.25511181640625,-0.0022222060941159724,0.040243163061141965,-0.026587270413339137
1620232232667116000,12.265115966796875,-0.0006749766521155834,0.032799861317873,-0.021133681182563303
1620232232677120000,12.2751201171875,-0.020831044974178075,0.017018939340114593,-0.032953006052970885
1620232232687123700,12.285123779296875,-0.050904842329025264,-0.007672434324026108,-0.02833732895106077
1620232232697128000,12.2951279296875,-0.041660482513159514,-0.026648352950811385,-0.016954349671304225
1620232232707132000,12.3051318359375,0.030562311524152754,-0.030962709018588063,-0.005430939007550478
1620232232717136000,12.315135986328125,0.061816696965694425,-0.00041501054167747495,-0.0005573416218161583
1620232232727139800,12.325139892578125,0.04036474361419678,0.01071311719417572,0.018741379218548536
1620232232737142800,12.335142822265626,0.027775457284599542,0.004421908095479011,0.02292377946972847
1620232232747146800,12.345146728515624,0.024238369199633597,-0.0029489129334688184,0.0397168010994792
