time,seconds_elapsed,z,y,x
1620148740046167000,0.0231669921875,-0.33801264219284055,0.6961604560501873,0.0937894598096609
1620148740056171300,0.033171142578125,0.40984219912886616,0.6085987847141922,0.12533143002092836
1620148740066175000,0.043175048828125,0.6405559115976095,0.4368276750795543,0.2851853073686361
1620148740076179000,0.053178955078125,0.6432891359537839,0.58975913275294,0.25448943259268997
1620148740086183200,0.06318310546875,0.49009647006094453,0.7281354108512401,-0.07486147197782993
1620148740096187100,0.073187255859375,0.4553980816453695,0.7271946959350257,-0.22666502159982918
1620148740106192100,0.083192138671875,0.37855508046150205,0.7041871106393635,0.04314882137477398
1620148740116196400,0.0931962890625,-0.0944394481509924,0.9780859579052775,0.03648673313707113
1620148740126200300,0.103200439453125,-0.773509507060051,1.353939305127412,0.24040683896541595
1620148740136204300,0.113204345703125,-1.601844244763255,1.747627803443372,0.4062731084704399
1620148740146208300,0.123208251953125,-2.1241975553065537,2.3258916556484994,0.8499445119649172
1620148740156212200,0.133212158203125,-1.8469038779705762,2.875570926143229,1.8265695304721592
1620148740166216400,0.143216552734375,-0.9286392784953117,3.073230218011141,2.908382185637951
1620148740176221400,0.153221435546875,0.14670096578598021,3.1545857281833887,3.1881665107458828
1620148740186225400,0.163225341796875,0.9229781839936971,3.1637893175974487,2.934122191572189
1620148740196229000,0.17322900390625,1.2534452331125736,2.829611723522842,2.7332354620903727
1620148740206233300,0.1832333984375,1.5696248136818407,2.349980241113901,2.5273709441959857
1620148740216237300,0.1932373046875,1.675114648157358,2.324250172051787,2.4480443095028397
1620148740226241300,0.2032412109375,1.0017080218374728,2.5691791646167634,2.6689918302386997
1620148740236246300,0.213246337890625,0.024217910933494565,2.1966884987607598,2.932432923310995
1620148740246250500,0.22325048828125,-0.8891519022375345,2.106680603316426,2.9158114588558672
1620148740256254500,0.23325439453125,-1.3702806374669074,2.2547151557937264,2.614732416784763
1620148740266258200,0.243258056640625,-2.04113757930398,2.0631600260198115,2.1897452554941177
1620148740276262400,0.253262451171875,-1.998288617658615,1.732983776541054,1.5733903036952017
1620148740286266400,0.263266357421875,-1.4624842893898486,1.4039803702339528,0.8399579554796218
1620148740296271400,0.273271240234375,-1.6229519147217273,0.9689660281866789,0.29943653556108474
1620148740306275300,0.283275390625,-1.9245143563956022,0.7364511115148663,-0.055397477573156356
1620148740316279300,0.293279296875,-1.262998658877611,0.6993722577035427,0.48050680393874645
1620148740326283300,0.303283203125,-0.33748949510157106,0.36484928425736723,1.8312334306299685
1620148740336287200,0.313287353515625,-0.08729016091823577,-0.004289806148409844,2.3246078994482753
1620148740346291200,0.323291259765625,-0.4970207163661718,-0.31300854931771754,0.07448036370575428
1620148740356295400,0.33329541015625,-1.5609844111084936,-0.8423945349767804,-2.861836123040318
1620148740366300400,0.343300537109375,-1.5671820967048407,-1.8308432622686028,-5.193828872042894
1620148740376304400,0.353304443359375,-0.8991483955949544,-2.8249671125873923,-5.897283430624007
1620148740386308400,0.363308349609375,0.9131716602504253,-3.1992768105641005,-4.553682710289955
1620148740396312300,0.373312255859375,0.0457622187435627,-3.324860169519484,-0.007135258707404136
1620148740406316300,0.38331640625,0.13636954138576984,-3.8715176079750058,2.6120330946981904
1620148740416320300,0.3933203125,1.4866086768209934,-3.4527708023786543,2.8211504769086835
1620148740426325200,0.4033251953125,3.842339444285631,-4.0281753196299075,1.1514964322447776
1620148740436329500,0.41332958984375,10.968272689461708,-4.287923987925052,-3.3762539644092318
1620148740446333400,0.42333349609375,12.166318106913566,-5.497729985797405,-7.257024553897977
1620148740456337200,0.433337158203125,8.962805558475852,-4.992492645227909,-9.050262308132648
1620148740466341400,0.44334130859375,6.141682554095983,-3.0237410876989363,-6.0572916217505925
1620148740476345300,0.453345458984375,5.472817662858962,-1.4894184735447167,-1.8969769456505774
1620148740486350300,0.463350341796875,4.278745240691304,-0.025558511887490747,1.369856274574995
1620148740496354300,0.473354248046875,2.3429943277493117,0.9088168260417878,3.578037934991717
1620148740506358300,0.483358154296875,-0.07840162880271673,0.9961066216338426,5.453444269347191
1620148740516362500,0.493362548828125,-3.579742985343933,0.4368111623361706,7.4694386395663015
1620148740526366200,0.5033662109375,-9.474849656450749,-0.03885368146412074,6.701555740216374
1620148740536370200,0.5133701171875,-9.242209944355487,0.2840528692726046,4.917189274701475
1620148740546375200,0.523375244140625,-3.083061291673779,1.186319031561911,3.8543583833813666
1620148740556379400,0.53337939453125,1.8202081787467002,0.6437839337334036,1.8240034793764353
1620148740566383400,0.54338330078125,3.5775995435744523,-1.6953808988556265,0.30003157884478565
1620148740576387300,0.55338720703125,4.569082523995638,-2.598968445941806,-0.049501989793777464
1620148740586391600,0.5633916015625,5.827496777692437,-1.578395856897533,-0.8251461707949638
1620148740596395300,0.573395263671875,7.394164495134353,-1.0530658686310053,-0.04289572339653969
1620148740606399200,0.583399169921875,8.321016305691003,-0.4089247920230031,1.7482091104626654
1620148740616404200,0.593404296875,8.67800428198874,0.30635606915857644,2.8509622623264788
1620148740626408400,0.603408447265625,9.222159089973568,0.801767925556004,3.7296447929978367
1620148740636412400,0.613412353515625,9.305846842485666,2.111306217290461,3.675389471197128
1620148740646416400,0.62341650390625,7.411829915684462,3.416083285972476,1.383748606327176
1620148740656420400,0.63342041015625,3.0495816313982007,3.637235097108781,-0.8209925582468509
1620148740666424300,0.64342431640625,-0.018118498079851268,4.940149879050255,-1.9436966112494467
1620148740676429300,0.65342919921875,-1.8699878164380788,5.4700949598968025,-2.6179788513600823
1620148740686433300,0.663433349609375,-3.9115450824588534,4.736479071807861,-3.2172721937209365
1620148740696437200,0.673437255859375,-5.430156332740188,2.894865701460838,-3.869504514586925
1620148740706441500,0.68344140625,-6.356410177403688,2.232326506114006,-3.606479601100087
1620148740716445400,0.693445556640625,-7.170530511793494,2.704204597917199,-2.9008757555305955
1620148740726449200,0.70344921875,-7.742202856779098,2.7588708386063576,-2.3517630328774453
1620148740736454100,0.7134541015625,-7.262525489401817,1.0727139874309302,-1.3473966054856776
1620148740746458400,0.723458251953125,-6.937592109012603,-0.15941899306178092,-1.4400579380482434
1620148740756462300,0.73346240234375,-7.0387331006288525,0.3886678936749697,-2.8164550125688312
1620148740766466300,0.74346630859375,-5.471054744839668,1.2997609940856694,-3.497122569802403
1620148740776470500,0.753470458984375,-3.8773862077474592,1.5052636929303407,-1.3122691780030726
1620148740786474200,0.76347412109375,-2.540058576333523,1.3115566458195447,-0.009072364249825477
1620148740796478200,0.773478271484375,-1.8809224674284457,2.4155489840894937,1.6766028408885
1620148740806483200,0.783483154296875,-1.0649426227770744,3.626770693978667,3.6741502847909926
1620148740816487400,0.7934873046875,-0.9149963914595544,3.1675638677000997,4.967701318320632
1620148740826491400,0.803491455078125,-0.968685019288212,2.899638322690129,5.326456304290891
1620148740836495400,0.813495361328125,-0.9114017279684543,2.8693887303769587,5.011774268803
1620148740846499300,0.823499267578125,-0.5272001660525798,3.1179601710975167,4.526684813249111
1620148740856503300,0.83350341796875,0.3974304247906431,3.202528798097372,3.944241483402252
1620148740866508300,0.84350830078125,1.4516308869421481,2.0818939525842666,3.2301188158124683
1620148740876512300,0.85351220703125,1.7720920903533697,-0.3321715149492025,3.0516543460190295
1620148740886516200,0.86351611328125,1.695976818922162,-2.059029794347286,2.6549785024553536
1620148740896520400,0.8735205078125,2.0797990261316297,-2.032403068706393,1.497808700749278
1620148740906524400,0.8835244140625,2.1311159563928843,-1.9117671030253172,0.845107008805871
1620148740916528000,0.893528076171875,2.582337629136443,-2.9018501535207033,0.05456921005547046
1620148740926533000,0.903533203125,2.7926421753048896,-3.1696640548497435,-0.6830433464542031
1620148740936537300,0.913537353515625,4.943024557703733,-2.765671750792861,-2.620311093699932
1620148740946541300,0.923541259765625,8.649761937844753,-2.0123411084085703,-5.069079041302204
1620148740956545300,0.933545166015625,6.71441229918003,-1.3792349282950163,-5.085453837519884
1620148740966549500,0.943549560546875,2.945509847027063,-1.1142881068348884,-3.71266793923378
1620148740976553500,0.953553466796875,0.9193728529781102,-0.8400655075073241,-2.483564827956259
1620148740986558500,0.963558349609375,-0.033330607193708416,-0.47765609068274495,-2.219763961660862
1620148740996562200,0.973562255859375,-0.45339667869508266,-0.15476736786365508,-2.0631261237502097
1620148741006566400,0.98356640625,-0.715445294495672,-0.5966472117662429,-1.4596905670180915
1620148741016570400,0.9935703125,-0.3681833240509033,-3.275238060477376,-0.09698489485010504
1620148741026574300,1.00357421875,-0.5230921462118625,-3.8041152198314663,0.6935463280290365
1620148741036578300,1.013578369140625,-0.4043896328113973,-3.066433981999755,0.35518545692041514
1620148741046582300,1.023582275390625,-0.618618805077672,-2.333797168076038,-0.07332198745086789
1620148741056587300,1.033587158203125,-0.8645277485907077,-1.6260142249017953,-0.19507453607171774
1620148741066591200,1.04359130859375,-0.9274997530713677,-0.5734288332641124,-0.43061062719561155
1620148741076595200,1.05359521484375,-0.985857980146259,-0.021873393633961676,-0.7516328985556959
1620148741086599400,1.063599365234375,-1.2373806718878446,0.6140443367689847,-1.0323799312159418
1620148741096603400,1.073603271484375,-1.7507102796286345,1.2836007174015045,-1.3672769256062804
1620148741106607400,1.083607421875,-2.290885662588477,1.7664958777815103,-1.5700513685308395
1620148741116611800,1.09361181640625,-2.4137220609232783,1.6421037744373082,-1.5479963347196577
1620148741126615800,1.10361572265625,-2.6190245610207317,1.5075544342160223,-1.4183013026617466
1620148741136619800,1.113619873046875,-2.1626801384359595,1.6681278580099344,-1.1684949133187532
1620148741146623500,1.12362353515625,-1.874550155917555,2.1772516846239567,-1.0045131423860787
1620148741156627700,1.133627685546875,-2.139403453875333,3.1879262722492214,-0.5366559766620397
1620148741166631700,1.143631591796875,-2.0358903263002635,3.515364328935742,-0.030676001031696796
1620148741176635600,1.1536357421875,-1.8771815273344516,3.8771144050687547,0.3872828690573573
1620148741186640600,1.163640625,-1.8247803089678287,4.014335010325908,0.8349712531082332
1620148741196644900,1.173644775390625,-1.7759965504460036,4.019837699395418,1.3568277200452983
1620148741206648600,1.183648681640625,-1.7659857363022864,3.892337693163752,1.815788316477835
1620148741216652500,1.193652587890625,-1.7934376607209443,3.7395582842469213,2.1732348501980305
1620148741226656800,1.20365673828125,-1.7916366026483475,3.591044716081023,2.434058454248309
1620148741236660700,1.21366064453125,-1.6962794551305471,3.3294285003483295,2.549047353953123
1620148741246665700,1.223665771484375,-1.5074772773265839,3.256059897276759,2.5491508143275974
1620148741256669700,1.233669677734375,-1.228328327512741,3.2665918126851317,2.412726620145142
1620148741266674000,1.243673828125,-0.8377870411813259,2.787875983816385,1.9288132226333021
1620148741276677600,1.253677734375,-0.4733762214064598,1.9309633864045141,1.303594580899179
1620148741286681600,1.263681640625,-0.1463923382282257,1.2641671181350946,0.7290808750078082
1620148741296685600,1.273685546875,0.27418898931890723,0.8989064035326242,0.2929001195296645
1620148741306690800,1.28369091796875,0.6827930249549448,0.485757564073801,-0.1770576717354357
1620148741316694800,1.29369482421875,1.0601835916817188,0.09037468293011187,-0.6450741196744143
1620148741326698800,1.30369873046875,1.370559162147343,-0.1423848561525345,-1.048185403113067
1620148741336702700,1.31370263671875,1.6251462098956106,-0.2987152355492115,-1.4084627763450146
1620148741346706700,1.323706787109375,1.9280995214059948,-0.305461787199974,-1.6903914200052619
1620148741356710700,1.333710693359375,2.4153479085594416,-0.29963176587224005,-1.9553046314567326
1620148741366714600,1.343714599609375,4.443642372903228,-0.27139877407848834,-2.5870602737441657
1620148741376719600,1.3537197265625,5.96671410972476,-0.22262042238414287,-2.8240006056427953
1620148741386723800,1.363723876953125,3.9658991884589194,-0.14513503164350985,-2.338505638027936
1620148741396727800,1.373727783203125,1.8232509074434637,-0.07164017184376716,-1.5353069490164517
1620148741406731500,1.3837314453125,0.8307707326784729,-0.0432002593010664,-1.090011013060063
1620148741416735700,1.39373583984375,0.4253603785172105,0.043154082071781154,-0.851033037853986
1620148741426739700,1.40373974609375,0.186728148008883,0.19443828399479388,-0.7396092832848429
1620148741436744700,1.41374462890625,0.017312369328737257,0.3517921612203121,-0.732839058497548
1620148741446748700,1.423748779296875,-0.04783902501761913,0.4469289439857006,-0.7214876433998346
1620148741456753000,1.4337529296875,-0.01915828945636749,0.46547874615490437,-0.7330845576912164
1620148741466756900,1.4437568359375,0.05146890595257282,0.37883331288099287,-0.7541890127792954
1620148741476760600,1.453760498046875,0.08934241727292537,0.2276379582852125,-0.7575032518938183
1620148741486764500,1.4637646484375,0.10431114608496427,0.08695406083166599,-0.606017828310281
1620148741496768800,1.473768798828125,0.10786562369614838,-0.12571896803379057,-0.37754429598376155
1620148741506773800,1.483773681640625,0.05126549233496189,-0.3548246607840061,-0.1874405340619385
1620148741516777700,1.49377783203125,-0.09802110603004693,-0.5963204640299081,0.008748977514356375
1620148741526781700,1.50378173828125,-0.29114041638076305,-0.8142758172124623,0.1574096990659833
1620148741536785700,1.51378564453125,-0.5728104091048241,-1.014606081855297,0.2529223294064402
1620148741546789600,1.52378955078125,-0.8807318644165992,-1.158190961447358,0.29339141017794607
1620148741556793600,1.533793701171875,-1.1748016122475267,-1.2186492295414209,0.31502237335816025
1620148741566798600,1.543798583984375,-1.48655899246037,-1.1593506528764963,0.22606588666290042
1620148741576802800,1.553802734375,-1.7530594731032847,-0.9766986682653427,-0.02077726896032691
1620148741586806800,1.563806884765625,-1.8998755897015331,-0.6964391268610954,-0.3538163605242967
1620148741596810800,1.573810791015625,-1.9098264903515576,-0.4017395566940307,-0.7673205892920494
1620148741606814700,1.583814697265625,-1.8359037605285644,-0.11128887614309788,-1.1601534936919808
1620148741616818700,1.593818603515625,-1.7305834374010562,0.17245909189879893,-1.4972868688322603
1620148741626823700,1.60382373046875,-1.6049819582670926,0.3964420348078012,-1.766031767401099
1620148741636827600,1.61382763671875,-1.4537643918395042,0.5291437013357877,-1.9697228867791592
1620148741646831900,1.623831787109375,-1.2913678442716598,0.55426119145751,-2.1370643434032797
1620148741656835800,1.6338359375,-1.1092968744188547,0.49277884101271624,-2.257296696719527
1620148741666839600,1.643839599609375,-0.9557850595742463,0.420068409588933,-2.3294565085232257
1620148741676843500,1.653843505859375,-0.7913727882698178,0.39297698904573913,-2.3814850941851735
1620148741686848800,1.663848876953125,-0.608489917512238,0.4423837017714977,-2.422164164445549
1620148741696852700,1.673852783203125,-0.39365620348155494,0.5589782831072807,-2.4565964492708443
1620148741706856700,1.683856689453125,-0.1685994938611984,0.6702654056847095,-2.4868346434071658
1620148741716860700,1.693860595703125,0.03760638481676578,0.7884270902067423,-2.525044839335978
1620148741726865000,1.703864990234375,0.17448095311522482,0.9320365197181701,-2.6060873380362986
1620148741736868600,1.71386865234375,0.3285793356761336,1.205970949754119,-2.765995575919747
1620148741746872600,1.72387255859375,0.65149319293648,1.6188789661943912,-3.063889558213949
1620148741756877600,1.733877685546875,0.7670300819128751,1.9424696998029947,-3.3612469494134185
1620148741766881800,1.7438818359375,0.4805161562889814,2.083513662740588,-3.4804692489042877
1620148741776885800,1.7538857421875,0.041082536494731904,2.08190622754395,-3.5225045560792085
1620148741786889700,1.7638896484375,-0.2589735922694206,2.0110405472040176,-3.591796118970215
1620148741796893700,1.773893798828125,-0.3866881180346012,1.9094775307834146,-3.676303955693543
1620148741806897700,1.783897705078125,-0.34819150637984275,1.8726362851202487,-3.6619469290390607
1620148741816902700,1.793902587890625,-0.1417214238077402,1.8555238222777843,-3.649031333364546
1620148741826906600,1.80390673828125,0.38259880289435383,1.7034207051873207,-3.7246699271947143
1620148741836910800,1.813910888671875,1.1567080294132233,1.401580031093955,-3.8034623088806865
1620148741846914800,1.823914794921875,2.126296865673363,0.9588643208891153,-3.8476907421857116
1620148741856918800,1.833918701171875,3.0387983715772626,0.41124154453277584,-3.7853660956978796
1620148741866922500,1.843922607421875,3.00194105156213,-0.1763952623039484,-3.3091672180861234
1620148741876926700,1.8539267578125,1.7899018878102302,-0.7101409044772387,-2.465972180381417
1620148741886931700,1.863931640625,0.5389563625589012,-1.2454448820084332,-1.7546739225625991
1620148741896935700,1.873935791015625,-0.311877499461174,-1.7584230459630488,-1.2368059407398104
1620148741906939600,1.883939697265625,-0.8159539795577525,-2.0786562858372926,-0.8269744822006672
1620148741916944000,1.89394384765625,-1.1382143413454293,-2.115045111557841,-0.5170525737866759
1620148741926947600,1.903947509765625,-1.4357690086826682,-1.8020839085131883,-0.24526743073910473
1620148741936951600,1.91395166015625,-1.7176029597967861,-1.233923371040821,0.0730026923686266
1620148741946956500,1.92395654296875,-2.0031889569208023,-0.6141624101907015,0.3454848412370309
1620148741956960800,1.933960693359375,-2.3001909588113425,0.10329787738919258,0.6203796772703528
1620148741966964700,1.94396484375,-2.6680995575740933,0.9568348608881234,0.9575741349481046
1620148741976968700,1.95396875,-3.0904090240880846,1.9210358666300773,1.3682023698881267
1620148741986973000,1.963972900390625,-3.501192595720291,2.857038367369771,1.9120818680629132
1620148741996976600,1.9739765625,-3.773845753774047,3.709183604249358,2.5953794815391302
1620148742006981600,1.983981689453125,-3.838962369067967,4.277922818392515,3.282658565866947
1620148742016985600,1.993985595703125,-3.6842560837417837,4.438143775486946,3.897058876466751
1620148742026989800,2.00398974609375,-3.3201883783161636,4.288990155851841,4.391754949277639
1620148742036993800,2.013993896484375,-2.9298744709998368,3.8060213457137344,4.694105910980701
1620148742046997800,2.023997802734375,-2.4556021775364876,3.096756639549136,4.800451777763665
1620148742057001500,2.03400146484375,-1.4949021656528114,2.231657228550315,4.6661575813472265
1620148742067006500,2.04400634765625,0.9675710666969418,1.1581307556927203,4.068795791570842
1620148742077010700,2.0540107421875,3.6326892703726887,0.13474866218566894,3.2827801464200017
1620148742087014700,2.0640146484375,3.1898294755220413,-0.4256611150294542,2.9739973981037733
1620148742097018600,2.0740185546875,1.0820832888007164,-0.6265116041541099,3.1600384406313298
1620148742107022800,2.08402294921875,-0.22634996430128812,-0.9664379710137844,3.206922649142146
1620148742117026800,2.09402685546875,-0.942691476984322,-1.4027800545334814,3.1902523771092293
1620148742127031000,2.104031005859375,-1.1491536685109138,-2.006770030277967,3.04534004830569
1620148742137036000,2.1140361328125,-0.9925552858278155,-2.5704870323449374,2.8641224804118273
1620148742147040300,2.124040283203125,-0.6159340960383415,-3.0638445500284432,2.6873551699250937
1620148742157044200,2.134044189453125,-0.029167934556305408,-3.5396909609407183,2.5560385280147195
1620148742167048200,2.144048095703125,0.4619401967652142,-3.881884688210487,2.546231419749558
1620148742177052200,2.15405224609375,0.3817180745370686,-4.099267209941148,2.7338307976350187
1620148742187056000,2.16405615234375,-0.06146262283101678,-4.162781358474493,3.0197715995460745
1620148742197061000,2.17406103515625,-0.3475467787355184,-4.186983487316966,3.3206966200992465
1620148742207065000,2.184065185546875,-0.37024376371204853,-4.296794692122936,3.61357920397222
1620148742217069000,2.194069091796875,-0.08138181365728378,-4.438647633355855,3.9184880334645507
1620148742227073300,2.2040732421875,1.212166297262907,-4.570202467936277,4.159879499553144
1620148742237077200,2.2140771484375,3.2332553602725267,-4.370394765862822,4.070490320529044
1620148742247081200,2.224081298828125,3.1355946119874716,-3.891329392904043,3.861830618958175
1620148742257085200,2.234085205078125,1.3508223421506582,-3.39337870221138,3.8209392211213706
1620148742267090200,2.244090087890625,0.2694832958459854,-2.894961563050747,4.061882066659629
1620148742277094100,2.25409423828125,-0.13927790311314164,-2.4246768779188392,4.406252553446591
1620148742287098000,2.26409814453125,-0.12422661058418452,-1.9471634105771778,4.3930224849954245
1620148742297102300,2.274102294921875,0.46594124910011886,-1.4514976159512996,3.948659299844503
1620148742307106300,2.284106201171875,1.9161025018811224,-0.9550812952190637,2.7616294896647333
1620148742317110000,2.294110107421875,2.9104999084442853,-0.6258861657321453,1.2804855079904198
1620148742327115000,2.304114990234375,1.754552926531434,-0.6141355221837759,0.5329194204822182
1620148742337119000,2.314118896484375,0.2976034749150276,-0.7741922286272048,0.3549380580306053
1620148742347123200,2.324123291015625,-0.598865983794257,-0.9556021042227745,0.3433239003434777
1620148742357127200,2.334127197265625,-1.3949894006572663,-1.1859656880795955,0.5555360336989164
1620148742367131100,2.344131103515625,-1.823477994197607,-1.2637591218560933,0.97355160241127
1620148742377135400,2.35413525390625,-1.9062234974235295,-1.1133061100602148,1.1863558564409613
1620148742387140400,2.364140380859375,-1.640554206907749,-0.7647966237723827,1.1741589304298161
1620148742397144000,2.37414404296875,-0.9075338004939257,-0.32766485117971894,0.8323062716826796
1620148742407148000,2.38414794921875,1.2828811709553003,0.4135498214751482,-0.04176847293227911
1620148742417152300,2.39415234375,3.8290170213758943,1.2488444613188505,-0.47560441884994503
1620148742427156200,2.40415625,2.671805426354706,1.8349504053264856,0.6734899206891656
1620148742437160200,2.41416015625,0.70181117528826,2.3162790470421313,1.7974933658525347
1620148742447164200,2.4241640625,0.4689493448749184,2.7660119425326584,2.0383944180756806
1620148742457169200,2.434169189453125,1.3322218327075241,3.0508243249356743,1.2083476157575845
1620148742467173000,2.444173095703125,1.714596763718128,3.0013194125324487,0.1897296679124236
1620148742477177000,2.454177001953125,1.0974880709424615,2.6162925057083366,-0.47228901069164275
1620148742487181300,2.464181396484375,0.43666006342768665,2.0024819776952265,-1.2519830516055226
1620148742497185300,2.474185302734375,0.022157471272349356,1.385377084311843,-2.1911308646336196
1620148742507189200,2.484189208984375,-0.056069677746295926,0.7881243078678846,-3.1478736633241176
1620148742517194200,2.4941943359375,0.3451987543046474,0.0869710119664669,-4.203696429447829
1620148742527198000,2.504197998046875,0.8277963930428027,-0.5701356369376183,-4.675217670637369
1620148742537202200,2.5142021484375,0.5953200548157096,-1.1279454607874155,-4.445556682091951
1620148742547206100,2.5242060546875,-0.06962240228056907,-1.5853297478139399,-3.8006373145878314
1620148742557210000,2.534210205078125,-0.32442017017006874,-2.0251813007593156,-3.278477480790019
1620148742567214300,2.54421435546875,-0.26381898647397756,-2.503445294207334,-2.757090969452262
1620148742577219300,2.55421923828125,-0.2671643513791263,-2.989037438586354,-2.3006547769308088
1620148742587223000,2.56422314453125,-0.34885362355038524,-3.5236867516010997,-1.969600867834687
1620148742597227000,2.57422705078125,-0.4367556327566504,-4.1639568319946525,-1.8103414492487906
1620148742607231200,2.584231201171875,-0.5143931453190743,-4.8808951415270565,-1.7593728940337896
1620148742617235200,2.594235107421875,-0.6841651900909841,-5.67437425442636,-1.7307435963988302
1620148742627239200,2.6042392578125,-0.8246350064024329,-6.453363069680333,-1.7321330049306154
1620148742637244200,2.614244140625,-0.7147860999345779,-7.1709911150425665,-1.6567776119560003
1620148742647248400,2.624248291015625,-0.36733898218125105,-7.798385347250104,-1.2641758859634398
1620148742657252000,2.634252197265625,0.19864538029581308,-8.21837309281826,-0.7220172202318906
1620148742667256000,2.644256103515625,0.7448585821151733,-8.360532908043265,0.027008418434858322
1620148742677260300,2.65426025390625,1.2758254072248936,-8.283359651991724,0.8013374251842499
1620148742687264300,2.66426416015625,1.8931573873624203,-8.167599183392523,1.5170388863980768
1620148742697268200,2.674268310546875,2.4029265261426564,-7.9820210822016,2.130776933696866
1620148742707273200,2.684273193359375,2.6150655942618846,-7.645688940441608,2.614008778685331
1620148742717277000,2.69427685546875,2.6769354827195406,-7.197634791818261,3.0281419530063864
1620148742727281200,2.70428125,2.6368063014268874,-6.703834206542372,3.4729067046955224
1620148742737285000,2.71428515625,2.363715920999646,-6.135453888839483,3.8623628261387344
1620148742747289000,2.7242890625,1.9492641822487116,-5.467511373144388,4.132287436011433
1620148742757293300,2.734293212890625,1.5424217494577168,-4.7328415920883415,4.3150715225696565
1620148742767298300,2.74429833984375,1.0832044017851352,-4.044033398497104,4.186768091000617
1620148742777302300,2.75430224609375,0.43615328294932837,-3.4092987403988837,3.794760823769867
1620148742787306000,2.764305908203125,-0.36548867813944813,-2.8138533056378363,3.1843796856835485
1620148742797310200,2.774310302734375,-1.3002473162978887,-2.2030489737033845,2.4104050453297794
1620148742807314200,2.784314208984375,-2.524702601769566,-1.3953127873927353,1.5094034230835736
1620148742817318100,2.794318115234375,-3.9219296983510255,-0.15406535707414148,0.6515896390482783
1620148742827323100,2.8043232421875,-5.301031940177083,1.3901461984097956,0.08987330927923322
1620148742837327400,2.814327392578125,-6.722313281562924,3.002234189289808,-0.11396437896266579
1620148742847331000,2.8243310546875,-7.728764698535204,4.374603323468565,-0.3089753482788801
1620148742857335000,2.8343349609375,-8.555804720252752,5.416985885521769,-0.5254059761121869
1620148742867339000,2.844339111328125,-9.129712276944517,5.926002160108089,-0.969287369095534
1620148742877343200,2.85434326171875,-9.83451532752514,5.9592684698939316,-1.4718129664883017
1620148742887347200,2.86434716796875,-10.72995726981759,5.97531125767827,-2.181016297854483
1620148742897352200,2.874352294921875,-11.675095263171196,5.481530546146631,-3.117562988473475
1620148742907356200,2.884356201171875,-12.093176882857083,4.081771008478105,-4.154874530872703
1620148742917360000,2.894360107421875,-11.66303891467452,2.255860526436567,-4.610187564583122
1620148742927364000,2.904364013671875,-9.958041169428824,0.8916340744420885,-3.8226477786049244
1620148742937368000,2.9143681640625,-9.398760688504575,1.5724094759643077,-2.9208167197972537
1620148742947372300,2.924372314453125,-18.70947952094078,8.93973740209937,-3.9346985790312288
1620148742957377300,2.934377197265625,3.5130157199829815,0.9104761375561357,0.533421524785459
1620148742967381200,2.94438134765625,3.489156120967865,1.7177704253181814,1.4983593203693628
1620148742977385000,2.954385009765625,5.0160553071230645,2.1657909639328716,2.4545240269109607
1620148742987389200,2.96438916015625,6.148206987428665,2.470269000792503,3.286888458521664
1620148742997393200,2.97439306640625,6.6187091147035355,2.6838112137079237,4.006376160275936
1620148743007397000,2.984397216796875,6.575754939118028,2.7951018434166905,4.603929965493083
1620148743017402000,2.994402099609375,-0.2181961762011051,3.559789161595702,5.099815540349483
1620148743027406300,3.00440625,-11.929343580484389,4.5631297530710695,5.669584097540378
1620148743037410300,3.014410400390625,5.726368061035871,3.3241377004638313,5.173932331439852
1620148743047414000,3.0244140625,-3.574901390531659,2.8023139667525885,14.33992003685832
1620148743057418000,3.03441796875,-13.120033374476431,-0.6854045956928283,19.30299603346586
1620148743067422200,3.044422119140625,-8.936786151078342,-7.6501681316822765,2.0332446340970693
1620148743077426200,3.05442626953125,3.825287771719694,-5.647543530645966,2.3113363299429417
1620148743087431200,3.06443115234375,-11.970545359444618,-4.630918510183692,7.053330950301885
1620148743097435100,3.07443505859375,6.651651014840603,-2.4528730448335407,3.1855653883367774
1620148743107439400,3.084439453125,8.851717757862806,-2.2998880303420126,1.7155626861408353
1620148743117443000,3.094443115234375,7.020275652918219,-2.7823741715297103,-0.5672418151922524
1620148743127447000,3.104447021484375,-15.790943021035194,-2.138489115509391,2.5466400005504486
1620148743137451300,3.114451171875,2.6690385919898745,-0.10054196627717464,1.0202129619516431
1620148743147456300,3.124456298828125,1.08808165243268,1.2969275242254137,1.9078698033258317
1620148743157460200,3.134460205078125,-2.824034507912397,-0.3484841326508671,0.8783637470457702
1620148743167464200,3.144464111328125,-1.7160381946980952,-0.2605686794411391,-0.10235102499313652
1620148743177468200,3.15446826171875,-1.1941039863497018,-0.1812815730407834,0.13177483400665224
1620148743187472100,3.16447216796875,0.3084697368443012,-0.15362791550494728,0.1813187632460147
1620148743197476000,3.17447607421875,1.4295067334175109,-0.14201200425215066,0.13635865466557442
1620148743207481000,3.184481201171875,0.6613391719073057,-0.1404744194213301,0.16756489011645317
1620148743217485300,3.1944853515625,0.08480126671195029,-0.16993633195552973,0.12603117578811943
1620148743227489300,3.2044892578125,-0.35964988898336886,-0.11206006144499406,0.10966996970437466
1620148743237493200,3.2144931640625,-0.28546587787568567,0.009999361167941243,0.12512465540245174
1620148743247497000,3.2244970703125,0.18093407477736473,0.21840764526100828,0.19347908357381818
1620148743257501200,3.234501220703125,0.21015432404279707,1.9610475590229033,0.16767704525403676
1620148743267505200,3.244505126953125,-0.0486550175756216,10.199080461078882,0.47584962578266854
1620148743277510100,3.25451025390625,0.09923486573398113,11.952522211498021,0.36347142003290356
1620148743287514000,3.26451416015625,-0.12614917614459992,-0.8978471037380397,-0.4602837347950786
1620148743297518300,3.274518310546875,-0.18806933348476887,-4.550817091725766,0.15427315460592508
1620148743307522000,3.28452197265625,-0.05487959117889404,-4.409188899159431,-0.1450082634586841
1620148743317526000,3.294526123046875,-0.12536708585619927,-4.487560425084829,-0.036177301861718296
1620148743327530200,3.3045302734375,-0.17812836970686913,-3.0386402584061023,0.08381342471837996
1620148743337535200,3.31453515625,-0.36117139946222304,-1.730478369591385,0.17358005875274538
1620148743347539200,3.324539306640625,-0.20187807860672471,-0.44113980265762653,0.17220248678922653
1620148743357543200,3.334543212890625,-0.12219956173598766,0.17364433789430186,0.21230171133503317
1620148743367547400,3.34454736328125,-0.1959498576015234,0.9585266864325851,0.278221605835855
1620148743377551000,3.354551025390625,-0.15070961690545082,1.339948189175874,0.2579598851822317
1620148743387555000,3.36455517578125,-0.09506664013862609,1.6187820816911755,0.2036515180200338
1620148743397560000,3.37456005859375,-0.12938216671645641,1.5212842688828705,0.22268165105208754
1620148743407564300,3.384564208984375,-0.11595628343224525,1.3369360017478464,0.2453274172980338
1620148743417568300,3.394568359375,-0.1972217772334814,0.8089080065689981,0.3303844854019582
1620148743427572200,3.404572265625,-0.4089543103784323,0.2634546466736123,0.42181620310433204
1620148743437576000,3.414575927734375,-0.3842839795023203,-0.15221309853726997,0.43868747760206456
1620148743447580200,3.424580078125,-0.15590893911421297,0.09965303634712472,0.3718501759953797
1620148743457584000,3.434584228515625,-0.08076806567311287,0.34068215366303917,0.3071158380173147
1620148743467589000,3.444589111328125,-0.30025194359719753,0.6511151534043252,0.41572833455801006
1620148743477593000,3.454593017578125,-0.4769482346743345,0.6396924997013061,0.35887875848039985
1620148743487597300,3.464597412109375,-0.5898936458528041,0.32822259466033427,0.16899886844232678
1620148743497601300,3.474601318359375,-0.8199731520712376,0.16576094596702604,0.3478774719946086
1620148743507605000,3.48460498046875,-0.9688011930137872,-0.14441175887025892,0.7237626025944948
1620148743517609200,3.494609130859375,-1.071791027367115,-0.6788419492416083,1.2841323400601743
1620148743527614200,3.5046142578125,-1.3794284050405026,-0.9415567008007317,2.434564065682888
1620148743537618200,3.5146181640625,-1.9834908614993094,-1.0811799102202058,4.034528195787966
1620148743547622100,3.5246220703125,-2.5380372996389866,-1.284710286078602,5.460504124730825
1620148743557626400,3.53462646484375,-1.4686650238513945,-1.249251580815017,5.48899372163415
1620148743567630000,3.544630126953125,-0.8069821530729532,-1.2533344662144779,4.266867171370983
1620148743577634000,3.554634033203125,-0.9375064755618572,-1.5289448666386305,3.1394366743683815
1620148743587639000,3.56463916015625,-0.5588707310795784,-1.5816323546007274,2.521741998398304
1620148743597643300,3.574643310546875,-0.9454676636993884,-1.4755410471007226,1.8985025477826594
1620148743607647200,3.584647216796875,-1.1436018796026706,-1.2074482557650654,1.6021876513734459
1620148743617651200,3.594651123046875,-1.5956021355032919,-0.8069099646195769,1.2454200398281217
1620148743627655200,3.6046552734375,-1.8233365399003028,-0.21979966587498784,1.1441522069618104
1620148743637659100,3.6146591796875,-2.1362176634460686,0.3822523275442421,1.1011956932887434
1620148743647664000,3.6246640625,-2.3410534228146074,0.9345493793219327,1.1044707694366573
1620148743657668000,3.634668212890625,-2.5234616617977617,1.4865221675813198,1.1074193901091813
1620148743667672000,3.644672119140625,-2.9545430483102795,2.0529121882498265,0.9058052231356502
1620148743677676300,3.65467626953125,-3.6820150268167255,2.6633517785251137,0.28062048367112874
1620148743687680300,3.66468017578125,-4.399934748601913,3.3325165294915435,-0.47125148433744907
1620148743697684000,3.67468408203125,-4.689896768853068,3.9099388163059947,-1.179662788543105
1620148743707689000,3.68468896484375,-4.683144371983409,4.234010903690755,-1.872191756223142
1620148743717693200,3.694693115234375,-4.398996006447076,4.270955025206506,-2.5079616025879976
1620148743727697200,3.704697265625,-3.9183278744667764,3.9711224760651587,-3.0888778689980505
1620148743737701000,3.714701171875,-3.257716432312131,3.3240254722610114,-3.489983803963661
1620148743747705300,3.724705322265625,-2.404137947759032,2.477259298071265,-3.5922584757849574
1620148743757709300,3.734709228515625,-1.3414379893422126,1.5404121632009744,-3.3032658850878476
1620148743767714300,3.74471435546875,-0.3056254533290863,0.6710419430151582,-2.6856404749616978
1620148743777718000,3.754718017578125,0.5002513688504696,-0.1207943711131811,-2.0219208376586435
1620148743787722000,3.764721923828125,0.9588280805319547,-0.8890268145531416,-1.5652517131641506
1620148743797726200,3.774726318359375,1.0513526349723339,-1.67052322871387,-1.365098558653891
1620148743807730200,3.784730224609375,0.8788841907232999,-2.408427753907442,-1.3110470888622103
1620148743817734100,3.794734130859375,0.5727186391681433,-3.0443495759636163,-1.304549105145037
1620148743827739100,3.8047392578125,0.22149638679027556,-3.552840365371108,-1.207878536941111
1620148743837743400,3.814743408203125,-0.03285129924416542,-3.9259032781571146,-0.9264860459841787
1620148743847747000,3.8247470703125,-0.12092588853836059,-4.175409369379282,-0.49404301572963594
1620148743857751000,3.8347509765625,-0.06341010363698005,-4.314886229130625,-0.0856931009851396
1620148743867755300,3.84475537109375,-0.029881928044557568,-4.26631246009767,0.27370719715133307
1620148743877759200,3.85475927734375,-0.11963292611837387,-4.104806723889708,0.4246599751628935
1620148743887764200,3.86476416015625,-0.37393560396730896,-3.8588399127095934,0.4284975074991584
1620148743897768200,3.874768310546875,-0.8654121302098036,-3.5838188564807174,0.27799714943021536
1620148743907772200,3.884772216796875,-1.5085557202130555,-3.3640590842247007,-0.14967705898731945
1620148743917776100,3.894776123046875,-2.0658388898402453,-3.270452579766512,-0.7296895084254443
1620148743927780000,3.904780029296875,-2.4405606757491825,-3.2616052564442155,-1.3379044083885847
1620148743937784300,3.914784423828125,-2.5281612177908417,-3.2426924661815164,-1.7864057162575422
1620148743947789300,3.924789306640625,-2.1370868474960325,-3.165599874150753,-1.8743313986003398
1620148743957793300,3.934793212890625,-1.2839730578452349,-2.9925632746249438,-1.3366053084887564
1620148743967797200,3.94479736328125,-0.43927521436214445,-2.8654595742344853,-0.515700282394886
1620148743977801000,3.954801025390625,0.25603169359862804,-2.9222528900802134,0.12659078243225813
1620148743987805200,3.96480517578125,0.8760779011309147,-3.216902191364765,0.4307978933960199
1620148743997809200,3.97480908203125,1.299206282812357,-3.575615091758966,0.39357261685132977
1620148744007813000,3.984813232421875,1.502368556010723,-3.7989007000535726,0.21497604511082172
1620148744017818000,3.994818115234375,1.4947265168249606,-3.8505350257009265,-0.0706635818965733
1620148744027822300,4.004822265625,1.3473504282563924,-3.7399165961652994,-0.33263606372103094
1620148744037826000,4.014825927734375,1.0852391224831341,-3.486475503581762,-0.4896453652925789
1620148744047830000,4.024830078125,0.7275356913924217,-3.161300715652108,-0.5021810217387974
1620148744057834200,4.034834228515625,0.3692074064016342,-2.7922394397228953,-0.3842002467416227
1620148744067838200,4.044838134765625,-0.025545944666862486,-2.353072361910343,-0.1484568695425987
1620148744077843200,4.05484326171875,-0.4901601829469204,-1.8480460337430238,0.08236644078046083
1620148744087847200,4.06484716796875,-1.063401969206333,-1.2925509165763853,0.23373452159464359
1620148744097851400,4.074851318359375,-1.7116607102662325,-0.6861304988145828,0.3011307722583413
1620148744107855000,4.084855224609375,-2.3712547920718787,-0.10274667324721813,0.2951091738812625
1620148744117859000,4.094859130859375,-2.9399738402098414,0.4597995314747095,0.300980257871747
1620148744127863300,4.10486328125,-3.3340698964133857,0.9960738153427838,0.39411899868771433
1620148744137868300,4.114868408203125,-3.4974113236159083,1.4156862978577613,0.553709110532701
1620148744147872500,4.12487255859375,-3.38498613691926,1.6547592578709125,0.7567436656981706
1620148744157876200,4.134876220703125,-3.0640193220734595,1.7256746225714683,0.9590992986887693
1620148744167880200,4.144880126953125,-2.73748405944556,1.6053922926336526,0.992911405789107
1620148744177884400,4.154884521484375,-2.2897657186478373,1.3106699261128902,0.9688172673657536
1620148744187889400,4.164889404296875,-1.726719455449283,0.8575760297566651,0.9755440914027392
1620148744197893400,4.174893310546875,-1.1093412980824708,0.29964813248515126,0.9500579140990972
1620148744207897300,4.1848974609375,-0.47617491221427916,-0.27271920902729035,0.8692708514645695
1620148744217901300,4.1949013671875,0.27770342718064783,-0.8366665127187967,0.7394181446269155
1620148744227905300,4.2049052734375,0.945899333114922,-1.2761755358368159,0.713529816263169
1620148744237909200,4.2149091796875,1.4599687994375825,-1.6052344717234373,0.7747435788996517
1620148744247914200,4.224914306640625,1.7026438755959272,-1.7930337560951708,0.8518696348085999
1620148744257918500,4.23491845703125,1.683551929374039,-1.8113006496697663,1.036875342939049
1620148744267922400,4.24492236328125,1.0211778614610434,-1.7701280968040227,1.337220079386234
1620148744277926400,4.254926513671875,0.017679741336405277,-1.7394097179353236,1.4581291629202664
1620148744287930400,4.264930419921875,-0.7008055053770542,-1.6007780768364668,1.3892065794721244
1620148744297934300,4.274934326171875,-1.3348960203528404,-1.3899603204488753,1.2275025442130862
1620148744307939300,4.284939208984375,-1.9286895962536335,-1.1617343331426382,1.100368594814837
1620148744317943300,4.294943359375,-2.3292577710807323,-0.8647054432451724,1.0528054641291498
1620148744327947300,4.304947265625,-2.413088439194858,-0.4343137925624847,1.066466325213015
1620148744337951500,4.314951416015625,-2.0062772783249616,0.315566417106986,1.0207898850567638
1620148744347955200,4.324955078125,-0.3695566582307219,1.7841209663212299,0.8163331881336867
1620148744357959200,4.334959228515625,1.7598787977293133,3.778680918845534,0.6885149097330868
1620148744367964200,4.344964111328125,1.7209680523157118,5.470498280000687,0.8241011917866766
1620148744377968400,4.354968505859375,-1.0817758302867413,6.362012819716334,1.3518753583349288
1620148744387972400,4.364972412109375,-2.9707074166476723,7.524993353527784,1.8706826668344436
1620148744397976300,4.374976318359375,-3.7103649229884144,8.683543795937299,1.9764153701551257
1620148744407980500,4.38498046875,-3.830623287528753,9.552736029207706,1.8395352488987147
1620148744417984300,4.394984375,-3.3968016623973845,9.878934314966202,1.2707134710386394
1620148744427989200,4.4049892578125,-2.296594687885046,9.489489591699838,0.008326368188112974
1620148744437993200,4.4149931640625,-0.4275891604825854,8.312338493716716,-1.6901850837782024
1620148744447997400,4.42499755859375,1.6265058078110217,6.518688067027926,-2.9987592066556212
1620148744458001400,4.43500146484375,2.535296184237301,4.605999172982573,-3.101563163048029
1620148744468005400,4.44500537109375,2.511377548511326,3.2550217864006754,-2.5012030682384965
1620148744478009300,4.45500927734375,2.789368268200755,2.592589558559656,-2.1468968783706424
1620148744488014300,4.465014404296875,3.205803289723396,2.5121990940272805,-2.010041453164071
1620148744498018300,4.475018310546875,3.0320845531523224,2.670904970383644,-2.119007731578499
1620148744508022300,4.485022216796875,2.4894962638318536,2.6744775681734083,-2.396729571198672
1620148744518026200,4.495026123046875,2.205992625939846,2.4671640205144882,-2.8254569419309497
1620148744528030500,4.505030517578125,2.3655150793761015,2.1813830853402614,-3.324955154326558
1620148744538034400,4.515034423828125,2.534122756543755,1.8331565076470373,-3.581344575321674
1620148744548039400,4.525039306640625,2.2359540489614007,1.443902338516712,-3.36240079562366
1620148744558043100,4.535043212890625,1.5890918768264353,1.0383341634452343,-2.707683087682724
1620148744568047400,4.54504736328125,0.872177386561036,0.5602192230790853,-1.871844111829251
1620148744578051300,4.55505126953125,0.16079159658923745,0.09622750061154366,-1.0908742057606577
1620148744588055300,4.56505517578125,-0.45914194434881206,-0.23782208316922188,-0.5306362779811025
1620148744598059500,4.5750595703125,-1.1021312205731868,-0.44413434483110903,-0.2812786553189158
1620148744608064500,4.585064453125,-1.7290448296569287,-0.5348801991611719,-0.3096288437515497
1620148744618068200,4.595068115234375,-2.2917402335911987,-0.6002011048555373,-0.6253941444315015
1620148744628072200,4.605072265625,-2.7508015139192343,-0.7773860562324524,-1.1914677926272152
1620148744638076400,4.615076416015625,-3.094410953205824,-1.038327149182558,-1.9346447052657603
1620148744648080400,4.625080322265625,-3.2081285178005694,-1.3485323315173388,-2.8064620263427495
1620148744658084400,4.63508447265625,-2.998662760543823,-1.709087644907832,-3.7528500197574495
1620148744668089300,4.64508935546875,-2.3097703958004714,-2.077904006165266,-4.70750023008287
1620148744678093300,4.65509326171875,-0.9452351701177656,-2.4660668729275463,-5.700507643592357
1620148744688097300,4.66509716796875,0.6533675354409962,-2.834706708574295,-6.475912170618773
1620148744698101200,4.675101318359375,0.6218541337370872,-2.9882547637760637,-6.257327871882915
1620148744708105200,4.685105224609375,-0.4129093316145241,-2.907650364232063,-5.272849217265844
1620148744718110200,4.695110107421875,-0.7505402810133993,-2.8730986908107994,-4.352666801470518
1620148744728114400,4.705114501953125,-0.27006131492964924,-2.90995045786798,-3.484894664131105
1620148744738118400,4.715118408203125,0.7268583035875111,-2.927336476954818,-2.4358475296221673
1620148744748122000,4.7251220703125,1.6597978365600108,-2.7728882580429315,-1.3009366137363017
1620148744758126300,4.735126220703125,2.17942669057548,-2.5461943026095626,-0.35172011889740823
1620148744768130300,4.74513037109375,2.349742925226688,-2.3847820899039505,0.30838351986557244
1620148744778135300,4.75513525390625,2.3561229816526175,-2.347190318134427,0.6177858613848686
1620148744788139300,4.76513916015625,2.8348621913969514,-2.465920157933235,0.7858148618817329
1620148744798143500,4.7751435546875,4.246481385946273,-2.7714807293325663,1.0899581138290464
1620148744808147500,4.7851474609375,4.1204017679065466,-2.8944676420539617,0.999365258103609
1620148744818151200,4.795151123046875,2.576329913154244,-2.7385440898925064,0.5742359118632971
1620148744828155400,4.8051552734375,1.3830050944834946,-2.509444242361188,0.24469445315673946
1620148744838160400,4.815160400390625,0.7042880867958068,-2.2382155641525983,0.10793006723448634
1620148744848164400,4.825164306640625,0.43926235488057136,-1.9184394203960895,0.1460237971767783
1620148744858168300,4.835168212890625,0.4578542426258325,-1.7747288685977458,0.32454934950768943
1620148744868172300,4.84517236328125,0.5014415284831076,-1.754111027982831,0.5418854017481207
1620148744878176300,4.85517626953125,0.4181448211152106,-1.8280986397355794,0.6667248104684055
1620148744888180200,4.86518017578125,0.051914311632514,-2.0165736314117906,0.5867492103472352
1620148744898185200,4.875185302734375,-0.5224649542242288,-2.3818629875868558,0.27900238095000385
1620148744908189200,4.885189208984375,-1.0598358011573552,-2.819480497869849,-0.06332637087628246
1620148744918193400,4.895193359375,-1.4075743030726908,-3.2682460096329446,-0.3527811722576618
1620148744928197400,4.905197265625,-1.5718641170412302,-3.6744986598372456,-0.5707905937150121
1620148744938201300,4.915201416015625,-1.5788362941414116,-4.002831035014987,-0.6664902710601687
1620148744948205300,4.925205322265625,-1.4778369029529392,-4.194609159889817,-0.6558885052859783
1620148744958210300,4.935210205078125,-1.2505652937620877,-4.240266749215126,-0.4886097386345267
1620148744968214300,4.94521435546875,-0.8210492568701505,-4.176518791925907,-0.2442965398803353
1620148744978218200,4.95521826171875,-0.021761676887795327,-4.0357764422833915,-0.02828852137327194
1620148744988222500,4.965222412109375,1.3974037683226168,-3.7951299493432042,-0.013397241711616515
1620148744998226400,4.975226318359375,2.3201883294403554,-3.4989819339334964,-0.32350363984704017
1620148745008230400,4.98523046875,1.7394763534307478,-3.2167315109729766,-0.7244497080758213
1620148745018235400,4.9952353515625,0.9102315151453018,-2.9368296969652175,-1.0348010208830236
1620148745028239400,5.0052392578125,0.612848404982686,-2.5982547447144984,-1.2038549805134535
1620148745038243300,5.015243408203125,0.6699672995209693,-2.1688199563652275,-1.1796356082752346
1620148745048247300,5.025247314453125,0.9358926836896687,-1.6789426820129154,-1.034529802726209
1620148745058251300,5.035251220703125,1.1710832493115215,-1.2104290982067585,-0.8880836884841322
1620148745068255500,5.04525537109375,1.3463146554678678,-0.842048205757141,-0.8138193056166172
1620148745078260500,5.055260498046875,1.56197985188663,-0.6272118613779545,-0.7962056152537464
1620148745088264200,5.06526416015625,1.8436176959067583,-0.558272765186429,-0.7374447987273335
1620148745098268200,5.07526806640625,2.1289532254010437,-0.5828092405498028,-0.6903063231945037
1620148745108272400,5.0852724609375,1.7881033139556646,-0.7683423335552215,-0.578015576532483
1620148745118276400,5.0952763671875,1.0602823758810758,-0.9695487965106964,-0.3628448856323957
1620148745128279600,5.105279541015625,0.6834381909906864,-1.0941291159033775,-0.16847089904546736
1620148745138284500,5.115284423828125,0.7795949644535779,-1.0908359195768833,-0.11611235077679156
1620148745148288500,5.12528857421875,1.063185696107149,-0.9662801501035689,-0.2518400871276855
1620148745158292500,5.13529248046875,1.2682716308444737,-0.751306443080306,-0.564912057070434
1620148745168296400,5.14529638671875,1.2710188837260008,-0.621339754474163,-0.9276207491025328
1620148745178300700,5.15530078125,0.9644780691176652,-0.6135849025636911,-1.1953089782252908
1620148745188305700,5.1653056640625,0.4838917702019214,-0.85512396042943,-1.3010863974705338
1620148745198309400,5.175309326171875,0.08239712817966938,-1.3077426404893397,-1.2568413052916525
1620148745208313300,5.185313232421875,-0.23242519256174562,-1.7799813822984694,-1.1056062032073735
1620148745218317600,5.195317626953125,-0.5699859262686222,-2.1539415361851453,-0.9711091776952147
1620148745228321500,5.205321533203125,-0.9426840973954648,-2.3593945506691933,-0.829907101586461
1620148745238325500,5.215325439453125,-1.2593237697571515,-2.3518144708037374,-0.7083733102828264
1620148745248330500,5.22533056640625,-1.3521622124522923,-2.1981804908841847,-0.633363662005961
1620148745258334700,5.235334716796875,-1.23370125272274,-2.0665069983601567,-0.5563514417350292
1620148745268338400,5.24533837890625,-0.9688262543898075,-1.9987363614261149,-0.4230950639337301
1620148745278342400,5.25534228515625,-0.674224810834974,-1.9904671302527188,-0.3329804932445288
1620148745288346600,5.2653466796875,-0.19775296150073407,-1.8286217868268488,-0.34133477235287424
1620148745298350600,5.2753505859375,0.607780161807686,-1.093234797412157,-0.6359244524046779
1620148745308355600,5.28535546875,0.6939677683115005,0.350693844589591,-1.5863094065010546
1620148745318359600,5.295359619140625,-0.4933367671564221,1.9515397259652614,-2.7839009427055714
1620148745328363800,5.30536376953125,-1.0623824169002474,3.4988474938988685,-3.5530984317854046
1620148745338367500,5.315367431640625,-0.1680849684678018,5.453756404036283,-4.207446429631114
1620148745348371500,5.325371337890625,2.7888807769447563,7.780130728635191,-3.835084650851786
1620148745358375400,5.33537548828125,4.9559787318229676,9.0468644823879,-0.7212558804705739
1620148745368380700,5.345380615234375,3.0934207731246945,8.309484273329376,0.7146386542879044
1620148745378384600,5.355384521484375,0.04154445491805672,6.559662466973066,-0.14326149285659193
1620148745388388600,5.365388671875,-1.2708294986337423,4.810061609891057,-0.18091668525114654
1620148745398392300,5.375392333984375,-1.5822265211015938,3.275266117528081,0.343022140917927
1620148745408396500,5.385396484375,-1.6705705749869346,1.96249015904665,0.7772787964656949
1620148745418400500,5.395400390625,-1.504317351990938,0.8797633116453886,1.0769991174042224
1620148745428405500,5.405405517578125,-1.555036316359043,-0.07043547222912311,1.2564606354109942
1620148745438409500,5.415409423828125,-1.7940327040046453,-0.906776990777254,1.4725309054993092
1620148745448413700,5.42541357421875,-2.0446523094266653,-1.5676479606509208,1.5206849878154693
1620148745458417700,5.435417724609375,-2.1949368327878416,-2.149315045428276,1.604413072337955
1620148745468421400,5.44542138671875,-2.2241771019279954,-2.6107430548876525,1.7094553091764448
1620148745478425600,5.455425537109375,-2.2388339883118866,-2.932322448673844,1.8590150253944098
1620148745488430600,5.4654306640625,-2.1402993798017502,-3.140751848620176,1.9244306236349045
1620148745498434600,5.4754345703125,-1.9299001410871743,-3.253849820011854,1.869419515030831
1620148745508438500,5.4854384765625,-1.8013326517544686,-3.4212820236593484,1.7408485185667872
1620148745518442800,5.49544287109375,-1.7678771030068396,-3.6181922507256266,1.7151378848575054
1620148745528446500,5.505446533203125,-1.771390079563856,-3.7958454041361804,1.6952999425739048
1620148745538451500,5.515451416015625,-1.8525655569940804,-3.834872177144885,1.719705192773044
1620148745548455400,5.525455322265625,-2.087284413450956,-3.7436873468756673,1.7147744583725928
1620148745558459600,5.535459716796875,-2.3757588254928588,-3.4989965469807385,1.7037790171056986
1620148745568463600,5.545463623046875,-2.630719090467691,-3.0641157681852578,1.7551662361241875
1620148745578467600,5.555467529296875,-2.851047018000483,-2.548860306948423,1.7204146562166511
1620148745588471600,5.565471435546875,-3.075635525587201,-1.959233203077316,1.7064307006582617
1620148745598476500,5.5754765625,-3.2302339666247364,-1.3353548700362443,1.6193604661010206
1620148745608480500,5.58548046875,-3.2811972611427307,-0.7700695957392454,1.5110167034991084
1620148745618484500,5.595484375,-3.2394711660474536,-0.2823889546483755,1.3664875287942588
1620148745628488400,5.605488525390625,-3.146722155201435,0.10235679714679717,1.1945733574271202
1620148745638492700,5.61549267578125,-3.0523277152359483,0.37655192394554615,0.9762082543998956
1620148745648496600,5.62549658203125,-2.926695840963721,0.5492763887822628,0.7118316340431571
1620148745658501600,5.635501708984375,-2.834171286523342,0.6780091516792773,0.43941623026803134
1620148745668505300,5.64550537109375,-2.7097464499533177,0.7559937241137027,0.1685918950766325
1620148745678509600,5.655509521484375,-2.60970260592401,0.7996247760474682,-0.06034962008781731
1620148745688513500,5.665513427734375,-2.478811203688383,0.8203443234711885,-0.24470986992157995
1620148745698517500,5.675517578125,-2.33638119321987,0.8674000891566276,-0.35597945684231813
1620148745708521700,5.685521728515625,-2.12232065551877,0.9398042311102152,-0.4057036380194127
1620148745718526700,5.695526611328125,-1.8931126714378594,1.036665353450179,-0.4382151839151978
1620148745728530700,5.70553076171875,-1.6452302358947692,1.147959490290284,-0.44085660180207337
1620148745738534400,5.715534423828125,-1.3123521801114082,1.2372680052936076,-0.40791532271951436
1620148745748538400,5.725538330078125,-0.9231585089966654,1.2407973484635353,-0.37676005027089265
1620148745758542600,5.73554248046875,-0.48741979819759723,1.1283639784604311,-0.35321240328177805
1620148745768546600,5.745546630859375,-0.029281185672432184,0.9351403309524059,-0.3492125199906528
1620148745778551600,5.755551513671875,0.4417553407400846,0.6567687952518463,-0.3803478090971708
1620148745788555500,5.765555419921875,0.928396117389202,0.39383214457035065,-0.44642362481206654
1620148745798559500,5.7755595703125,2.854520247069001,0.2392366261422634,-0.8017682178169488
1620148745808563500,5.7855634765625,6.970172190099954,0.472717465236783,-1.8296718804016707
1620148745818567400,5.7955673828125,4.114945840588212,0.6763759975194931,-1.8429937187895178
1620148745828571600,5.805571533203125,0.5543512078285217,0.4348287563472986,-1.0269468002513051
1620148745838576600,5.81557666015625,0.02885916086807847,0.4690969366520643,-0.9521285828933119
1620148745848580600,5.82558056640625,-0.09703706342875956,0.4894008890122175,-1.2763482620552182
1620148745858584600,5.83558447265625,-0.1851389791212976,0.3861573721587658,-1.6131337005406616
1620148745868588500,5.845588623046875,-0.14933949759602547,0.2277513555318117,-1.935740099287033
1620148745878592500,5.855592529296875,-0.028592472755908965,0.052743163672089574,-2.199906876285374
1620148745888597500,5.865597412109375,0.102987496265769,-0.09159224202632904,-2.373324291822314
1620148745898601500,5.8756015625,0.2075952872097492,-0.2086030029475689,-2.4618384415775534
1620148745908605700,5.885605712890625,0.26872750904262066,-0.15481763674616814,-2.4764275234222413
1620148745918609700,5.895609619140625,0.251110019287467,0.1163677868425846,-2.5271692841440436
1620148745928613400,5.90561328125,0.095318569073081,0.6512959167987108,-2.6473250650927422
1620148745938617300,5.915617431640625,-0.1358556005142629,1.37083534874022,-2.783310867857933
1620148745948621600,5.92562158203125,-0.40520752506554125,2.1452876896083355,-2.872073731677234
1620148745958626600,5.93562646484375,-0.7020147350363433,2.8733786767959595,-2.9283456539973614
1620148745968630500,5.945630615234375,-0.9171759274557232,3.5024598391771313,-2.9568969179600475
1620148745978634500,5.955634521484375,-1.111526094775647,3.903547069442272,-2.999532529115677
1620148745988638700,5.965638671875,-1.2430448351293801,3.9877579690456386,-2.9929119419321415
1620148745998642400,5.975642333984375,-1.2274328399777412,3.6764948020905255,-2.915053041703999
1620148746008647400,5.9856474609375,-1.1212601378045977,2.8660733222186563,-2.7837387378811833
1620148746018651400,5.9956513671875,-1.0547434464544057,1.7661977716177701,-2.536964117449522
1620148746028655600,6.005655517578125,-1.0928237323932348,0.7483259659647941,-2.18727915764153
1620148746038659600,6.01565966796875,-1.2253905204951763,-0.21582360185086727,-1.7722139631673692
1620148746048663600,6.02566357421875,-1.4879041234590111,-1.0119207882940768,-1.4118737538322805
1620148746058667500,6.03566748046875,-1.7973381752908228,-1.6628332587331534,-1.072154892243445
1620148746068672800,6.0456728515625,-2.120166692355275,-2.137720469224453,-0.7804337533652782
1620148746078676500,6.055676513671875,-2.536782915663719,-2.471739073345065,-0.5830860481971875
1620148746088680400,6.065680419921875,-3.049407443875074,-2.683368146115541,-0.5278551228299737
1620148746098684700,6.0756845703125,-3.6773616480529308,-2.682223652255535,-0.5732592853834853
1620148746108688600,6.085688720703125,-4.410581814822554,-2.424520810574293,-0.6743097126394509
1620148746118692600,6.095692626953125,-5.190742011943459,-2.0239508821815253,-0.8576111010700463
1620148746128698600,6.10569873046875,-5.89151595313847,-1.526311741656065,-1.0702230473980308
1620148746138702600,6.11570263671875,-6.393330918043851,-1.0305570997029543,-1.2792793470710515
1620148746148706600,6.12570654296875,-6.661278090363741,-0.5174164386630058,-1.389043205603957
1620148746158710800,6.135710693359375,-6.628895577675104,-0.0568289716809988,-1.313858639151603
1620148746168714800,6.14571484375,-6.509985120612383,0.3280243321418762,-1.152978122169897
1620148746178718700,6.15571875,-6.400100850570201,0.5722247181713581,-1.0489026114717126
1620148746188723700,6.1657236328125,-6.255764860349893,0.6446610088288783,-1.034741545780748
1620148746198727700,6.175727783203125,-6.1470285912990565,0.5521271020382642,-1.087553171579167
1620148746208731600,6.185731689453125,-5.885445108792186,0.4184674041330814,-1.1302570987306535
1620148746218735600,6.195735595703125,-5.60316721330285,0.15964520303308963,-1.2584338351801037
1620148746228739800,6.20573974609375,-5.390950696033239,-0.21081249569058416,-1.4238085217759013
1620148746238743800,6.215743896484375,-5.258319172132015,-0.605638327473402,-1.534924087178707
1620148746248748800,6.225748779296875,-5.269782815432548,-0.939957375845313,-1.5262395532026887
1620148746258752800,6.235752685546875,-5.40282934987545,-1.1946429155319929,-1.3568597226187586
1620148746268756700,6.2457568359375,-5.583292884531617,-1.3635428536444902,-1.0126396040879189
1620148746278760700,6.2557607421875,-5.686320128285884,-2.389997778725624,0.7813251492470502
1620148746288764700,6.2657646484375,-5.8739680214881895,-3.8259143791854378,3.473616606530547
1620148746298768600,6.2757685546875,-6.659350337171555,-0.6391676721096038,1.250919221766293
1620148746308773600,6.285773681640625,-6.8973816791772835,-0.3803215056121349,2.068931010636687
1620148746318777900,6.29577783203125,-7.047885544377565,-0.2717044790267944,2.726224122023582
1620148746328781600,6.305781494140625,-7.022941657257079,-0.022756606209278104,2.8882275786206124
1620148746338785500,6.31578564453125,-6.858434985667467,0.26192542781233785,3.051873541727662
1620148746348789800,6.325789794921875,-6.500550937312841,0.5704273133605718,3.0841870808333156
1620148746358793700,6.335793701171875,-5.905292549556494,0.8292664655953645,3.008970219546556
1620148746368798700,6.345798828125,-5.211395508393645,1.0236959817618132,2.8969243875563144
1620148746378802700,6.355802734375,-4.46864763482213,1.177292552280426,2.79306098523885
1620148746388807000,6.365806884765625,-3.7742251084804534,1.2530442510962485,2.743201560309529
1620148746398810600,6.375810546875,-3.108957364952564,1.3339116854906081,2.7577546940580007
1620148746408814600,6.385814697265625,-2.4478584315419196,1.3959949244379997,2.8497213223546742
1620148746418818800,6.39581884765625,-1.7218366518437862,1.4491735569179056,2.9971961951225996
1620148746428823800,6.40582373046875,-0.9165455205976962,1.5311889923036097,3.195512781855464
1620148746438827800,6.415827880859375,0.13104169742651284,1.6209318070709704,3.415691071784496
1620148746448831700,6.425831787109375,10.863112525331973,2.0337673427969216,3.902813494470715
1620148746458835700,6.435835693359375,15.289498058485984,2.5916321117043495,3.5874651040285825
1620148746468839700,6.445839599609375,3.2491590318471193,2.0061410847246646,2.776038538767397
1620148746478843600,6.45584375,0.5074585237503051,1.116202416023612,2.4995474099859596
1620148746488848600,6.4658486328125,-0.3831237035512924,0.25325112296938895,2.4743662069782615
1620148746498852600,6.4758525390625,-1.1194552803397178,-0.4785895721405744,2.418197891163081
1620148746508856800,6.48585693359375,-1.863392655956745,-1.0888047060102224,2.371281680078804
1620148746518860800,6.49586083984375,-1.9842986707508563,-1.5846207227617501,2.2971875392116603
1620148746528864500,6.505864501953125,-1.9872469991624355,-2.023749222129583,2.3510754890047014
1620148746538869500,6.515869384765625,-1.974401546114683,-2.3527286630392075,2.433535161026567
1620148746548873700,6.525873779296875,-1.9515502473592756,-2.54770996786952,2.490595749506354
1620148746558877700,6.535877685546875,-1.897721626538038,-2.60090029078722,2.4776263778179883
1620148746568881700,6.545881591796875,-1.7350632131636141,-2.4151105926722285,2.4214684372663497
1620148746578886000,6.555885986328125,-1.6245242786049843,-1.8556798896223305,2.348092089279741
1620148746588889600,6.5658896484375,-1.5613579205960035,-0.830061999887228,2.285961650189757
1620148746598894600,6.57589453125,-1.4961328764915465,0.44620121423304077,2.2150477467939256
1620148746608898600,6.585898681640625,-1.4765788657158612,1.7057897724062203,2.1665873750075697
1620148746618902800,6.59590283203125,-1.4986591800987719,2.806115989384055,2.1449571424797176
1620148746628906800,6.60590673828125,-1.4998726475417614,3.646600014564395,2.1645421329155563
1620148746638910700,6.61591064453125,-1.4149404479265213,4.088953905719518,2.0464497142374514
1620148746648914700,6.625914794921875,-1.1944658053994177,4.009681047040224,1.7304072040513157
1620148746658920000,6.635919921875,-0.8760836002193391,3.346522258490324,1.3118753563798964
1620148746668923600,6.645923583984375,-0.4672498474806547,2.4730793820381165,0.9919298474058509
1620148746678927600,6.655927734375,0.8106658100217581,1.5847826353251933,0.6456964893564582
1620148746688931600,6.665931640625,4.24611547524333,0.5854425116628408,0.021148951816931365
1620148746698935800,6.675935791015625,4.140678832259774,-0.21473463757038116,-0.39414077212810517
1620148746708939800,6.685939697265625,1.3873105365924536,-0.5776823990553617,-0.19805391720868645
1620148746718943500,6.695943603515625,-0.029750264488905668,-0.6774287214428186,0.18029493662361054
1620148746728948500,6.705948486328125,-0.24721242732703685,-0.9465916992932557,0.12351999668478965
1620148746738952700,6.71595263671875,-0.27227204978168007,-1.1798340534567833,-0.0942471404492855
1620148746748956700,6.725956787109375,-0.3292575271986425,-1.3325637780129909,-0.28703732844348995
1620148746758960600,6.735960693359375,-0.3608976970873773,-1.4242922136396168,-0.461501038162969
1620148746768964900,6.74596484375,-0.4162732550896704,-1.3574579807728528,-0.6551511309221386
1620148746778969900,6.755969970703125,-0.4673262737177312,-1.0693687686562539,-0.8549816293492912
1620148746788973800,6.765973876953125,-0.5073017257533967,-0.6847364141076803,-0.9960518957719207
1620148746798977500,6.7759775390625,-0.5708908392190933,-0.38653321973383425,-1.0555968484133482
1620148746808981800,6.785981689453125,-0.6408848512910306,-0.2197130105048418,-1.0773182663559913
1620148746818985700,6.79598583984375,-0.6958306395739317,-0.20897417434751986,-1.0749921614959836
1620148746828989700,6.80598974609375,-0.7368570619672536,-0.3928828810214996,-1.0276698538288473
1620148746838994700,6.81599462890625,-0.741179601341486,-0.7250380293577909,-0.9796113408416509
1620148746848999000,6.8259990234375,-0.7858230451881885,-1.0153495936989783,-0.9122592215806246
1620148746859002600,6.836002685546875,-0.8582036601357161,-1.116556636288762,-0.8614628080621362
1620148746869006600,6.846006591796875,-0.9480464281462132,-0.9665788407891989,-0.8542731888189912
1620148746879010600,6.856010498046875,-1.0364515645690262,-0.6566460456550121,-0.8381853928491473
1620148746889014800,6.866014892578125,-1.135846443170309,-0.3966086235463619,-0.7986246590942144
1620148746899019800,6.876019775390625,-1.2076261696152388,-0.33005320762097834,-0.7428124632403255
1620148746909023700,6.886023681640625,-1.223590631466359,-0.4956669636696577,-0.7285846889887004
1620148746919027700,6.89602783203125,-1.1526533471949398,-0.8827005341410636,-0.7624556866694241
1620148746929031700,6.90603173828125,-1.0759389408268034,-1.3849100513219832,-0.8127792219791561
1620148746939035600,6.91603564453125,-0.9917166430465877,-1.8343571156084537,-0.8900557192094624
1620148746949039600,6.92603955078125,-0.9395572706118226,-2.047804635977745,-0.9268749722365289
1620148746959044600,6.936044677734375,-0.947165699788928,-1.9930840347528456,-0.9022282414317131
1620148746969048800,6.946048828125,-0.853388368808478,-1.7327438303053377,-0.8217863389730453
1620148746979052800,6.956052734375,-0.6427192271113396,-1.2854063055187464,-0.5535504128396511
1620148746989056500,6.966056396484375,-0.63703007555902,-0.8125479705065488,-0.06687471100762486
1620148746999060700,6.976060791015625,-0.6362441858783364,-0.5084557180941105,0.4607784960420802
1620148747009064700,6.986064697265625,-0.5479267277389764,-0.4003355351150036,0.8726517260745167
1620148747019069700,6.996069580078125,-0.45807051572501656,-0.5458849927783012,1.10811416744031
1620148747029073700,7.00607373046875,-0.3442132503986358,-1.0229507163524627,1.0218171092126518
1620148747039077600,7.01607763671875,-0.45543695235103365,-1.7487205671161412,0.5347701994480565
1620148747049081900,7.026081787109375,-0.6376201504066586,-2.5279233173817395,-0.2482578081941232
1620148747059085600,7.03608544921875,-0.7347884389996528,-3.1858839527666567,-1.0674378005936742
1620148747069089500,7.046089599609375,-0.7780024345651269,-3.682860829991102,-1.6748105506442486
1620148747079094500,7.056094482421875,-0.7443073779731988,-4.043884929937124,-2.1289957493685185
1620148747089098800,7.0660986328125,-0.5681459244251251,-4.356726890516281,-2.538467507749796
1620148747099102700,7.076102783203125,-0.2903156559944153,-4.497886588788032,-2.865864647904038
1620148747109106700,7.086106689453125,0.08124065162092446,-4.332891256898641,-3.088037911042571
1620148747119111000,7.09611083984375,0.6519774693220853,-3.8960213501125573,-3.2883927256047722
1620148747129114400,7.1061142578125,1.667242599608004,-3.2718086705505844,-3.736135031799972
1620148747139119400,7.116119384765625,3.2045909913241863,-2.5433728154480457,-4.77424620014429
1620148747149123000,7.126123046875,3.0812694398209453,-1.9590280358940362,-5.589587016239762
1620148747159127300,7.136127197265625,1.4625801509797571,-1.6152251198619603,-5.348798484480381
1620148747169131300,7.14613134765625,0.2737897608682513,-1.2648738050997257,-5.074498728263378
1620148747179135200,7.15613525390625,-0.3365554291218519,-0.854282833430171,-5.236691277691722
1620148747189139500,7.166139404296875,-0.46859366330504415,-0.3635550797283649,-5.496497813653946
1620148747199144400,7.17614453125,0.009185761496424675,0.17684066798388956,-5.542150142282247
1620148747209148400,7.1861484375,0.9118658383488655,0.8002092979371547,-5.229966353350878
1620148747219152100,7.196152099609375,1.8215291982173918,1.2932383143186568,-3.675376611715555
1620148747229156400,7.20615625,1.7792554061114787,1.2867822700470686,-1.6378610223010182
1620148747239160300,7.216160400390625,0.9817711492240428,0.8261854507148265,-0.7676407611571252
1620148747249164300,7.226164306640625,0.2555418642550707,0.06746551650762557,-0.9838767432011664
1620148747259169300,7.236169189453125,-0.2503419575244188,-0.746071465036273,-1.7390540363654494
1620148747269173500,7.246173583984375,-0.6050842007219791,-1.4125000690370797,-2.5547423507243394
1620148747279177200,7.25617724609375,-0.6945961293429136,-1.9158786299973725,-3.1376436534717675
1620148747289181200,7.26618115234375,-0.39026656104326246,-2.3307436257243155,-3.4174718177214265
1620148747299185200,7.27618505859375,0.6109130530059337,-2.7858593832969665,-3.3652012399971483
1620148747309189400,7.286189453125,2.9866292084008452,-3.4661499239116904,-3.020479455554485
1620148747319194400,7.2961943359375,6.109804483798146,-4.441666104394197,-2.3206758206963536
1620148747329198300,7.3061982421875,6.366099212247133,-5.478152594146132,-1.6867109779268503
1620148747339202300,7.316202392578125,4.106548014599085,-6.0212014867156745,-2.005452956330031
1620148747349206300,7.326206298828125,2.9928894378393887,-6.408229211968183,-2.085298500330746
1620148747359210200,7.336210205078125,2.9981659169375896,-6.920847310438751,-1.448247235853225
1620148747369214200,7.346214111328125,3.226965320217609,-7.38602035164535,-0.6773473267696798
1620148747379219200,7.35621923828125,3.260300603586435,-7.698337996089458,-0.10501461817920207
1620148747389223400,7.366223388671875,3.151365597093105,-7.923278970375657,0.21153759509474038
1620148747399227400,7.376227294921875,3.0428917783707377,-7.97877523214817,0.5418536914356052
1620148747409231000,7.386231201171875,2.8651316574543713,-7.985634596523642,0.8413393268354237
1620148747419235300,7.3962353515625,2.7341385484099385,-7.937592157888412,1.140623594444245
1620148747429239300,7.4062392578125,2.632247030687332,-7.78737003223896,1.5338542659901082
1620148747439244300,7.416244384765625,2.4580291124224662,-7.518497561767697,2.0000154414512217
1620148747449248300,7.426248291015625,2.2084435262233018,-6.9936220392704005,2.513232820989191
1620148747459252500,7.43625244140625,1.8632476945281027,-6.241838626328111,2.9966771396845577
1620148747469256400,7.44625634765625,1.3794541240036486,-5.462131433671712,3.339138577979803
1620148747479260200,7.45626025390625,0.5390495938003063,-4.696601819449663,3.429247887971997
1620148747489264000,7.46626416015625,-0.40545477782487865,-3.8350855276346203,3.1408579393431544
1620148747499269000,7.47626904296875,-1.3948159437865018,-2.8961057646498083,2.553457863871753
1620148747509273300,7.4862734375,-2.4643267512619493,-1.8213596868693827,1.849461161237955
1620148747519277300,7.49627734375,-3.76831909930706,-0.40042788957357406,1.149267065757513
1620148747529281300,7.50628125,-5.142023281481862,1.1424077013820408,0.4971455117896199
1620148747539285200,7.51628515625,-6.618853491610288,2.4785098826542495,-0.10645721820294857
1620148747549289200,7.526289306640625,-8.505214935222268,3.6119451730296013,-0.5438233840733766
1620148747559294200,7.536294189453125,-10.453705210489034,4.890482761822641,-0.8676271759107709
1620148747569298200,7.546298095703125,-12.407378441351652,5.804409332093596,-1.212593290503323
1620148747579302400,7.556302490234375,-14.28818400440216,6.167924079811573,-1.370956344771385
1620148747589306400,7.566306396484375,-15.544875672090052,6.1357473188281055,-1.3272235860288142
1620148747599310300,7.576310302734375,-15.560889233779907,6.106545774263143,-1.3244447689652443
1620148747609314300,7.586314208984375,-20.10344030920267,14.638146612107754,-2.86570302760154
1620148747619319300,7.5963193359375,-9.188808609035611,15.334820716768503,-5.238381130474806
1620148747629323300,7.6063232421875,4.144955194404721,2.0182249057501553,-3.627693946303427
1620148747639327200,7.6163271484375,4.538666927465796,2.181689667071402,-2.0109721581429243
1620148747649331500,7.62633154296875,6.753528504037857,0.6363432623386382,-0.6603254648201167
1620148747659335400,7.63633544921875,7.573585827261209,-0.0018525873304344712,0.586664235477522
1620148747669339100,7.646339111328125,7.544931395184993,-0.11368643880411981,1.3686018905997275
1620148747679344000,7.65634423828125,-11.354321340548992,0.2817227092919871,1.9057550031289456
1620148747689348000,7.66634814453125,-17.85151946030259,-0.6151758980821818,1.431209445682168
1620148747699352300,7.676352294921875,26.058355260062218,-0.9262285640917718,-0.4269687635619193
1620148747709356300,7.686356201171875,-15.597330666470526,1.6885637661866844,12.067903325390816
1620148747719360300,7.6963603515625,-2.009368814599514,2.9911648060038685,4.186940232697129
1620148747729364500,7.706364501953125,1.0163631546556948,-1.021948553572595,8.403333938893676
1620148747739369500,7.716369384765625,2.1547189502984283,-5.964678804504871,7.733297081267834
1620148747749373200,7.726373291015625,2.884513234272599,-4.670923480574786,3.86893635931015
1620148747759377200,7.736377197265625,-8.510541098681092,-0.643572994396463,8.663526843824982
1620148747769381400,7.74638134765625,2.6380834817558525,0.1231368425861001,-1.6431110517837106
1620148747779385300,7.75638525390625,-0.4509761735498905,-0.026102724599675275,-0.47635103596616535
1620148747789389300,7.766389404296875,-0.23264205018281936,0.004211973405536264,-0.0061730808780528605
1620148747799394300,7.776394287109375,-0.9703671271562576,0.14124934931658206,-0.12569955094726756
1620148747809398300,7.786398193359375,-1.7102572732090948,0.013158866378478705,-0.26184589630272237
1620148747819402200,7.79640234375,-1.4723872592449188,0.05778714918866753,-0.18843266863813624
1620148747829406200,7.80640625,-0.6407891358315945,0.13974590421738103,-0.08033067890284583
1620148747839410400,7.816410400390625,0.32497605048716066,0.3345725847415626,0.1470310379905626
1620148747849414400,7.826414306640625,0.1970961050271988,2.8749782209470864,1.5353820600792765
1620148747859419400,7.83641943359375,0.3811667242646217,12.109060680687428,6.355919179016351
1620148747869423400,7.84642333984375,1.5872037249922752,17.093982598400114,8.950211449840664
1620148747879427000,7.856427001953125,0.8082821297556161,8.43721282761991,2.890736638832092
1620148747889431300,7.866431396484375,-0.20464462071061132,-2.7359406293958424,-2.0398907941132784
1620148747899435300,7.876435302734375,0.7044003149986267,-8.549732122340798,-3.3403608132511375
1620148747909439200,7.886439208984375,0.234235456854105,-8.3274945617944,-3.7177933194234964
1620148747919444200,7.8964443359375,0.08563304136097431,-3.876558524751663,-3.7344384570151563
1620148747929448400,7.906448486328125,-0.1945236241906881,-2.454518181692064,-3.2076345968037843
1620148747939452200,7.9164521484375,-0.4604080187618732,-1.8972167457558213,-2.0579479904599487
1620148747949456100,7.9264560546875,-0.5913572886645794,-1.8425129495352506,-1.4528785489156841
1620148747959460400,7.93646044921875,-0.6847691473335027,-1.8240470262572168,-1.224062340631336
1620148747969464300,7.94646435546875,-0.7065221294581889,-1.6065411704078316,-1.0002385338068007
1620148747979469300,7.95646923828125,-0.26247897004187104,-1.7102238093309103,-0.9118432611908763
1620148747989474300,7.966474365234375,-0.2060398744612932,-1.6538411201126872,-0.7046431838437914
1620148747999478300,7.976478271484375,-0.14006722685992717,-1.0696353106379508,-0.5844000534052028
1620148748009482500,7.986482421875,-0.05589081404805183,-1.1270103718943894,-0.5542186674900352
1620148748019486200,7.996486328125,-0.07827040363848209,-0.8897809939213096,-0.32291838730499145
1620148748029490200,8.006490234375,0.24074527713954447,-0.438898343873769,-0.3354260597657412
1620148748039495200,8.0164951171875,0.5544646050751209,-0.2649258882699534,-0.3422820631403476
1620148748049499400,8.02649951171875,0.3968944547504186,-0.13121214035628362,-0.2858595168357715
1620148748059503400,8.03650341796875,0.265295196506381,-0.017528724626312032,-0.2844870959714055
1620148748069507300,8.04650732421875,0.26782792985439297,0.032457842947170135,-0.32814890836961563
1620148748079511300,8.05651123046875,0.13751578881144522,0.11484969216352328,-0.31746158320382234
1620148748089515300,8.066515380859375,0.0921907924413681,0.04314284829171374,-0.31334475900214165
1620148748099520300,8.076520263671876,-0.09948036492764949,-0.06359825575337745,-0.3198564059184864
1620148748109524200,8.086524169921875,-0.27065876936614514,0.007078715347731485,-0.28517367172976954
1620148748119528200,8.096528076171875,-0.22729075228273868,0.054739561653696,-0.27684604316633193
1620148748129532000,8.106531982421876,-0.25876316438913344,0.05880689329099841,-0.2569767193637788
1620148748139536000,8.116535888671875,-0.18505320053398608,0.06359751596786081,-0.24887842431049792
1620148748149539800,8.126539794921875,-0.10328209529817103,0.07152651886884123,-0.2622234609108418
1620148748159544800,8.136544921875,-0.09796469966769218,0.06251189442193135,-0.26351395737910643
1620148748169548800,8.146548828125,0.02212590709030628,0.06775121984751895,-0.25565739865982906
1620148748179552800,8.156552734375,0.04674363099634647,0.07321452675471082,-0.26477142836060374
1620148748189556700,8.166556640625,0.02439677463173866,0.06542702381680719,-0.25369771595941853
1620148748199561000,8.17656103515625,0.08227963927984237,0.0630502756149508,-0.2415388021374121
1620148748209565000,8.18656494140625,0.20319325285851955,0.07059142084266058,-0.2578587446290068
1620148748219570000,8.19656982421875,0.038160511568188664,0.08596084854323416,-0.28668281591739503
1620148748229573600,8.20657373046875,-0.18493103545904158,0.07502198716863058,-0.2609108256760053
1620148748239577900,8.216577880859376,-0.14839607926607132,0.08410184060516766,-0.2626824932573363
1620148748249581800,8.226581787109374,-0.02985620908141136,0.07304745395896024,-0.2613002999176271
1620148748259585800,8.236585693359375,-0.10360767399072647,0.06573550524408929,-0.25603971250830215
1620148748269590800,8.2465908203125,-0.10629238303005695,0.0801435223002918,-0.2474585110425949
1620148748279595000,8.256594970703125,-0.11872633266746997,0.06648752918778918,-0.24163294669426977
1620148748289599000,8.266598876953125,-0.10933832659721374,0.06654889485305175,-0.21865506241712718
1620148748299602700,8.276602783203124,-0.02035948193967342,0.06222504943772219,-0.2062669794817455
1620148748309607000,8.28660693359375,-0.056790393236279484,0.05459238086850382,-0.2151384508646093
1620148748319611000,8.29661083984375,-0.06508709693849087,0.06057102145326789,-0.21558553704498334
1620148748329616000,8.306615966796874,-0.05825988126695156,0.0564626636858331,-0.2270466413285583
1620148748339619800,8.316619873046875,-0.0617436317294836,0.059221154914004724,-0.21783779121749103
1620148748349623800,8.326623779296876,-0.08674538651704787,0.04906425596363842,-0.2250118475653231
1620148748359627800,8.336627685546874,-0.15582710604965685,0.060649918208643794,-0.24035001247795298
1620148748369631700,8.3466318359375,-0.26409926472008227,0.05754323459730949,-0.2754342766722664
1620148748379635700,8.3566357421875,-0.41312312049567695,0.06377341139088384,-0.28962122572315857
1620148748389640700,8.366640625,-0.5642027397572994,0.010515473446936811,-0.3654188643062487
1620148748399645000,8.37664501953125,-0.8694096754133701,-0.022007890750805382,-0.3758415106538683
1620148748409649000,8.38664892578125,-0.9882307006269693,0.6807565506912767,-0.016806751044292467
1620148748419652900,8.39665283203125,-1.3687065200179815,2.395478109832853,0.2801396048190072
1620148748429656800,8.40665673828125,-1.909930535247922,3.63570774141103,0.14031398642892018
1620148748439660800,8.416660888671874,-1.4896359156876802,4.248836424639821,0.2038093389302492
1620148748449665800,8.426665771484375,-2.062625773012638,3.846980840350687,0.5503991092018783
1620148748459669800,8.436669677734375,-2.5567688881158825,3.18818141605407,0.6936527110129594
1620148748469674000,8.446674072265624,-2.655032278469205,2.606472830222547,0.6144039638616144
1620148748479678000,8.456677978515625,-3.648020402756333,2.0942316022403538,0.3474614385396242
1620148748489681700,8.466681640625,-1.3546505221366882,2.1060000737063587,0.5018944598823786
1620148748499686000,8.476685791015624,-1.7925404196202754,2.063655116060376,0.2438657472476363
1620148748509691000,8.48669091796875,-1.4867840333878992,2.190667192644626,0.13835925389826298
1620148748519694800,8.49669482421875,-1.4341846621006726,2.3060455300584435,-0.18348405152112243
1620148748529698800,8.50669873046875,-1.8467583320200442,2.3448075146511194,-0.6460922106757759
1620148748539702800,8.516702880859375,-2.6353642859250304,2.3470158383503557,-1.2292816827148199
1620148748549707000,8.52670703125,-3.588389233136177,2.3037924904346463,-1.8201383283808827
1620148748559710700,8.536710693359375,-4.413579827594757,2.284832353898883,-2.2691326804637906
1620148748569715700,8.5467158203125,-5.182818233206868,2.3527365540847183,-2.5568609503135082
1620148748579719700,8.5567197265625,-5.844570662090182,2.438049569711089,-2.6427248778209087
1620148748589724000,8.566723876953125,-6.234000187787413,2.5634964428052305,-2.3769939202457664
1620148748599727900,8.576727783203125,-6.231415431991219,2.6959733606666325,-1.6289806734919547
1620148748609731800,8.58673193359375,-5.630737941795587,2.7667577924638986,-0.6155062260150909
1620148748619735800,8.59673583984375,-4.710463171541691,2.570679340046644,0.2747776028618216
1620148748629740800,8.60674072265625,-3.630912616088986,2.0678969914138317,0.8432222179725766
1620148748639744800,8.616744873046875,-2.5724896043390033,1.3939900143563746,1.1608882377073169
1620148748649748700,8.626748779296875,-1.5915022989690304,0.7498866394102573,1.3339569859370588
1620148748659753000,8.6367529296875,-0.721136345744133,0.20945757395029066,1.4404945758998393
1620148748669757000,8.6467568359375,-0.04372106830477714,-0.20087445452213287,1.4899746461227534
1620148748679761000,8.656760986328125,0.4028817124664783,-0.5237456416845321,1.3943331287056207
1620148748689766000,8.666765869140624,0.591081978854537,-0.7302490420043468,1.137519344818592
1620148748699769900,8.676769775390625,0.5712023893862962,-0.8037561767637729,0.7146122046723962
1620148748709773800,8.68677392578125,0.4159896158427,-0.7461936301112174,0.2324364446081221
1620148748719777800,8.69677783203125,0.21923604064285754,-0.5787409681975841,-0.26206191367357967
1620148748729781800,8.70678173828125,0.08162789737284183,-0.34722996787130833,-0.7682707296237349
1620148748739786000,8.716785888671875,0.10854571491479872,-0.0773942053258419,-1.3209174716219305
1620148748749791000,8.726791015625,0.3491641508042812,0.22096213378310203,-2.0324583060249686
1620148748759794700,8.736794677734375,0.7500070509195327,0.550152587094903,-2.8146944326370953
1620148748769798700,8.746798583984376,1.9361323134750126,0.9428232866704463,-3.7996968188673255
1620148748779803000,8.756802978515625,6.924725028654932,2.065675223711133,-5.644166747689247
1620148748789806800,8.766806884765625,8.054255128285288,2.8529040440440174,-6.387317356842756
1620148748799811800,8.776811767578126,2.5100427927762268,2.489520229229331,-5.283320926919579
1620148748809815800,8.78681591796875,0.16364333275854587,2.3837165064990518,-3.7657895808294413
1620148748819820000,8.796820068359375,-0.8835691336691379,3.0263796195089814,-2.545541099397838
1620148748829823700,8.80682373046875,-1.2797066325724125,3.7604496811062096,-1.4355921908110378
1620148748839827700,8.81682763671875,-1.156555469200015,4.467302649953961,-0.6037982525646686
1620148748849832000,8.82683203125,-0.8732418009221553,4.917113286855817,0.044752164918184276
1620148748859837000,8.8368369140625,-0.6293190627902746,4.777670913895965,0.8891010488331318
1620148748869841000,8.8468408203125,-0.6290992825597524,3.9043122085958717,1.9030021972894668
1620148748879844900,8.856844970703126,-0.8601894271254539,2.7001766575753687,2.6023198021963236
1620148748889848800,8.866848876953124,-1.4610355518862603,1.7684779915094375,2.850048070091009
1620148748899852800,8.876852783203125,-2.4983482633292673,1.2651467768222093,2.905883062298596
1620148748909856800,8.886856689453126,-3.6374861492604014,1.0787690496861935,3.0169483588188886
1620148748919861800,8.89686181640625,-4.606160208763182,1.0319558605849741,3.3313661904126404
1620148748929865700,8.90686572265625,-5.286901708015799,0.9243038796395063,3.926207229539752
1620148748939870000,8.916869873046876,-5.773620810598135,0.5773848774135112,4.60606113230288
1620148748949874000,8.9268740234375,-6.124004274064302,-0.002026537391543388,5.111534619715809
1620148748959877600,8.936877685546875,-6.376354064279794,-0.7842389908671379,5.296643934351206
1620148748969881900,8.9468818359375,-6.667333152619004,-1.672926782724261,5.2732361707568165
1620148748979886800,8.956886962890625,-7.109932542967796,-2.4793770208775996,5.289840099555254
1620148748989890800,8.966890869140625,-7.82619806780517,-3.097136578777432,5.353717820703983
1620148748999894800,8.976894775390624,-8.628312322580815,-3.5367613372296094,5.4375996344834565
1620148749009899000,8.98689892578125,-9.127225720825791,-3.8761844307422635,5.676657981449365
1620148749019903000,8.996903076171876,-9.186527220100164,-4.122212032198906,6.255653216668963
1620148749029908000,9.006907958984375,-9.016653468519449,-4.261230626788735,6.967862159591913
1620148749039911700,9.01691162109375,-8.733507558023929,-4.304851741850376,7.593492304736375
1620148749049916000,9.026916015625,-8.236916465246678,-4.37882883220911,8.113056276822089
1620148749059920000,9.036919921875,-7.403311093664169,-4.570747826859355,8.385462182116507
1620148749069923800,9.046923828125,-6.303071385926008,-4.875931966161728,8.431266486436128
1620148749079927800,9.056927734375,-5.094886851775646,-5.193536026576161,8.24060538289249
1620148749089932800,9.066932861328125,-3.792594293385744,-5.37690521954596,7.892762836080789
1620148749099936800,9.076936767578125,-1.9566402639746665,-5.494238052028417,7.4453072378724805
1620148749109940700,9.086940673828124,2.5899627171874045,-5.270200164061785,6.281654503887891
1620148749119944700,9.09694482421875,16.75929705480337,-3.396647348618507,2.1011901892066
1620148749129949700,9.10694970703125,16.864534375822544,-1.1833330014884471,-0.3898527195453644
1620148749139954000,9.116953857421874,1.2396926020920276,-2.067528742623329,0.5021574947327375
1620148749149959000,9.126958984375,-4.342072926741838,-2.948531240674853,1.6847446462899445
1620148749159963000,9.136962890625,-5.454162062227725,-2.944558829912543,0.6788485251128673
1620148749169966600,9.146966552734375,-5.546273359692097,-2.4689678550660608,-1.1278875931203365
1620148749179970800,9.156970703125,-3.606155191451311,-1.4483493810534476,-3.6039001060009
1620148749189974800,9.166974853515624,1.1616548381656409,0.13247136490345002,-7.015637471723556
1620148749199978800,9.176978759765625,1.2410621368795633,1.6587053651481867,-7.015185636302828
1620148749209983700,9.186983642578125,-2.7415409336209295,2.9437603730112314,-4.4527199978500605
1620148749219988000,9.196988037109374,-1.8705343444049358,4.119139785146713,-4.195757160881161
1620148749229991700,9.20699169921875,-0.756873429557681,4.664432072728872,-4.439451935476065
1620148749239995600,9.21699560546875,-1.0899009768143295,4.4171722991287705,-4.749351997384428
1620148749250000000,9.226999755859374,-1.3595439932666717,3.2291894260078666,-5.833081884348392
1620148749260003800,9.23700390625,-1.0036042108476162,1.4688830505162476,-7.330971833640336
1620148749270008800,9.2470087890625,-0.10991115804910659,-0.14661270298063755,-8.134196095484494
1620148749280012800,9.2570126953125,0.7184636194035411,-1.2934195161044597,-7.576063031029701
1620148749290016800,9.267016845703125,1.1291203497856854,-1.8902970294952393,-6.436674385207891
1620148749300020700,9.277020751953126,1.5331687679439783,-2.1217957548618314,-5.209290060546994
1620148749310024700,9.287024658203125,2.191383670350909,-2.0517115802884103,-3.8221068035960197
1620148749320029700,9.29702978515625,3.084671064957976,-1.8256290347516535,-2.542885324192047
1620148749330033700,9.30703369140625,3.9837843892395495,-1.5758599086791276,-1.407134158089757
1620148749340038000,9.317037841796875,4.162521246233582,-1.464874399396777,-0.6220955412775278
1620148749350041900,9.327041748046875,3.3833997445106503,-1.4876993946671484,-0.3701479021221399
1620148749360045600,9.337045654296874,2.4256723186969755,-1.629202207288146,-0.3589198211431503
1620148749370049800,9.3470498046875,1.696648142312467,-1.8626807082951067,-0.6226105050623416
1620148749380054800,9.3570546875,1.1867264433190226,-2.1684996383696795,-1.2520172461360692
1620148749390058800,9.367058837890625,0.8885194495528936,-2.496726215085387,-2.2144997575223444
1620148749400062700,9.377062744140625,0.592366757968068,-2.652155261728167,-3.0792507934749125
1620148749410067000,9.38706689453125,0.1481400586783886,-2.5653648670256137,-3.4508699371933935
1620148749420071000,9.39707080078125,-0.29153306896016,-2.180353742292523,-3.18985051831007
1620148749430074600,9.40707470703125,-0.6833240630917251,-1.626563090956211,-2.503320791044831
1620148749440079600,9.41707958984375,-0.9978336646221577,-1.147392504057288,-1.7036787716016173
1620148749450083800,9.427083740234375,-1.1501980629973112,-0.810595082873106,-0.974032956187427
1620148749460087800,9.437087890625,-1.2055951021790503,-0.6480401298731565,-0.4059133352473378
1620148749470091800,9.447091796875,-1.237399814979732,-0.6619096652716397,0.024482114827632902
1620148749480095700,9.457095703125,-1.286486501970887,-0.7606044327795505,0.25715192980021234
1620148749490100700,9.467100830078126,-1.3901722096338867,-0.8855711211413144,0.22845979606211184
1620148749500105000,9.47710498046875,-1.5188491506904362,-0.9277338540881872,-0.008544540983438492
1620148749510108700,9.487108642578125,-1.6563091176614164,-0.8450847969740629,-0.3485886890038848
1620148749520112600,9.497112548828126,-1.746845859285444,-0.653581981909275,-0.6519920823693275
1620148749530116900,9.507116943359375,-1.7356038959115743,-0.34736265434026714,-0.868087486898899
1620148749540120800,9.517120849609375,-1.6126137683197854,-0.07519406493306159,-0.9811518482819199
1620148749550125800,9.527125732421876,-1.3573708870112895,0.12092179688513278,-1.0931214001655578
1620148749560129800,9.5371298828125,-0.9943534212909638,0.2630091313958168,-1.390320678193867
1620148749570133800,9.5471337890625,-0.459216763150692,0.3394704397857189,-1.9434123874805866
1620148749580137700,9.5571376953125,0.2834334952652454,0.4644043949216604,-2.6631381357744335
1620148749590141700,9.5671416015625,1.1847814467310904,0.5590425805151462,-3.272764363840222
1620148749600146000,9.57714599609375,2.1117288266167042,0.5305477229148149,-3.4561499234229323
1620148749610151000,9.58715087890625,2.67175135807991,0.17423194679021833,-3.041818011659384
1620148749620155000,9.59715478515625,2.6724276499062776,-0.4911836807757616,-2.2475929026983676
1620148749630158800,9.607158935546876,2.5861896283894774,-1.2699860335469244,-1.47971424113214
1620148749640162800,9.617162841796874,2.504354810267687,-1.9492694429457187,-0.8894561458811163
1620148749650166800,9.627166748046875,2.1976529598787424,-2.3959850364416835,-0.675037880783528
1620148749660170800,9.637170654296876,1.8659037619948386,-2.636603472331166,-0.6578326250910759
1620148749670175700,9.64717578125,1.5983300991624594,-2.8282793058753013,-0.6904527459278702
1620148749680179700,9.6571796875,1.3726397678136826,-2.894034511333704,-0.7331438866630197
1620148749690184000,9.667183837890626,1.233885961639881,-2.894008207848668,-0.8493588210314512
1620148749700187600,9.677187744140625,1.1055614872828126,-2.820795087599754,-0.9144988902661949
1620148749710191600,9.687191650390625,0.9810670926079154,-2.7346885835081336,-0.9943469184849411
1620148749720195800,9.69719580078125,0.8558762401014566,-2.6586077988684176,-1.1738172773852944
1620148749730200800,9.707200927734375,0.7509402401164174,-2.5280168408840895,-1.4362553308948873
1620148749740204800,9.717204833984376,0.652682987242937,-2.2744003917336464,-1.6804320437878368
1620148749750208800,9.727208740234374,0.5835349244758486,-1.9491203898638485,-1.8522130902945995
1620148749760213000,9.737212890625,0.4522971930205822,-1.5989894398540256,-2.1250909970149396
1620148749770216700,9.747216796875,0.28210400022715326,-1.273452248352766,-2.420859949979186
1620148749780221700,9.7572216796875,0.08943316429629922,-0.9679963063716888,-2.5834426677688955
1620148749790225700,9.7672255859375,-0.09122501614913343,-0.687623952242732,-2.667188287948072
1620148749800230000,9.77722998046875,-0.3720177876472473,-0.5016279179006815,-2.7294129811927674
1620148749810233900,9.78723388671875,-0.6910419439926743,-0.4095242192208767,-2.85040112131238
1620148749820237800,9.79723779296875,-1.058429295360297,-0.3059241440147161,-3.0283821915030478
1620148749830241800,9.80724169921875,-1.4069313289940357,-0.23274784864485262,-3.076754885005951
1620148749840246800,9.817246826171875,-1.6985713654600083,-0.2219388698607683,-3.0923399921506642
1620148749850250800,9.827250732421875,-1.9977976192712783,-0.2883271125257015,-3.1100799392417073
1620148749860254700,9.837254638671874,-2.1895124696515498,-0.39643735863268376,-3.011493892805278
1620148749870258700,9.8472587890625,-2.290453116390109,-0.5622352390766143,-2.933631777706742
1620148749880263000,9.857262939453125,-2.3405980802625415,-0.7423895616531372,-2.8248285808995366
1620148749890267000,9.867266845703124,-2.2582225793927906,-0.8766746979802846,-2.6784482253700492
1620148749900271900,9.87727197265625,-2.0924609393060205,-0.9659960724651813,-2.516159814351797
1620148749910275600,9.887275634765626,-2.028795984125137,-0.9908967049658298,-2.3391040423125027
1620148749920279800,9.89727978515625,-1.907746176946163,-0.9522013558685779,-2.183295056441426
1620148749930283800,9.90728369140625,-1.7975800212226807,-0.8445207333505154,-1.95150041686818
1620148749940287700,9.917287841796876,-1.6234860215984284,-0.7301251233637333,-1.6535865608297287
1620148749950292000,9.9272919921875,-1.448812176259607,-0.6296311974793672,-1.3585336471803486
1620148749960297000,9.937296875,-1.3157687105566263,-0.517130607458949,-1.0793094401732086
1620148749970300700,9.94730078125,-1.1929121462166308,-0.4204243834197521,-0.8823705715343355
1620148749980304600,9.9573046875,-1.096315812292695,-0.2776478976011276,-0.699908848798275
1620148749990308900,9.967308837890625,-0.9642634034536778,-0.03149228585064411,-0.45824104998633264
1620148750000312800,9.977312744140624,-0.8581989839605987,0.1955874540299177,-0.27543796646669505
1620148750010317800,9.98731787109375,-0.6933011210963129,0.391123470133543,-0.25189970836043357
1620148750020321800,9.99732177734375,-0.3746688866779208,0.5236410122662782,-0.35427813281714915
1620148750030326000,10.007325927734374,0.8523686703719198,0.6220569628328084,-0.5018053202942013
1620148750040329700,10.017329833984375,5.380079757928848,0.6457458814561367,-0.7773813800573348
1620148750050333700,10.027333740234376,4.595841936105489,0.5400573095381259,-1.7948606792613864
1620148750060337700,10.037337646484374,0.7385073133923112,0.24999650508761403,-2.1200226077094673
1620148750070342700,10.0473427734375,-0.40897243055701255,0.25164719490408893,-2.425126959773898
1620148750080347000,10.057346923828124,-0.3529565288245678,0.5448953972190618,-3.231169201648235
1620148750090350800,10.067350830078125,-0.407563440541923,1.0089432337880133,-3.8031881681144237
1620148750100354600,10.0773544921875,-0.4517912893250584,1.6390461404323577,-4.1855534545138475
1620148750110358800,10.08735888671875,-0.4578166870944202,2.3966759413152934,-4.438864490976929
1620148750120362800,10.09736279296875,-0.46666576398238535,3.2024305984199044,-4.629555697397888
1620148750130367000,10.107366943359375,-0.392533336931467,3.926152284482121,-4.811919804978371
1620148750140371000,10.117370849609374,-0.23302695784717797,4.379963389196992,-5.046396084851026
1620148750150375000,10.127375,-0.07124021274074911,4.294110567605495,-5.118309812939167
1620148750160379000,10.13737890625,0.31133973932266235,3.569479950004816,-5.032879600673914
1620148750170383000,10.147383056640624,0.7712099979460239,2.4143980604887005,-4.803749942526221
1620148750180387000,10.157386962890625,0.9404238243132829,1.225225100800395,-4.349441701944172
1620148750190392000,10.16739208984375,0.4693777994200587,0.3130798609882593,-3.787427704402804
1620148750200396000,10.17739599609375,-0.016977730546891688,-0.25165654725432396,-3.30020299038589
1620148750210399700,10.187399658203125,-0.2603103938311338,-0.6329974590420723,-2.774823317758739
1620148750220404000,10.197404052734376,-0.5941391744680702,-0.8640987095236777,-2.3397094608597455
1620148750230408000,10.207407958984374,-0.9537538460075855,-0.8886924680322408,-1.966642894811928
1620148750240413000,10.217412841796875,-1.338315911798924,-0.7075877128630876,-1.5133251265719532
1620148750250417000,10.2274169921875,-1.792576659977436,-0.38466450325250623,-1.1108265682041645
1620148750260421000,10.237421142578125,-2.353768965872377,-0.01114449434876442,-0.7792205781832336
1620148750270424800,10.2474248046875,-2.9163591558665036,0.33894612365067,-0.44153935990184545
1620148750280428800,10.2574287109375,-3.475946510782838,0.7031213811039925,-0.14747892788853495
1620148750290433000,10.26743310546875,-4.086889374405145,1.0289783060789108,0.27216742036342617
1620148750300438000,10.27743798828125,-4.603511447820067,1.2609598465263843,0.7739041324008256
1620148750310442000,10.28744189453125,-4.98847990245521,1.3675275393664836,1.2553554506480693
1620148750320446000,10.297446044921875,-5.164449048301577,1.364949213311076,1.718697330904752
1620148750330450200,10.3074501953125,-5.2598231469541785,1.2600023996710776,2.166733067088574
1620148750340454000,10.317453857421874,-5.182501422342658,1.1064788943886756,2.6127619934946296
1620148750350457900,10.327457763671875,-5.031719909244775,0.8400047172307967,2.9533605605274436
1620148750360462800,10.337462890625,-4.797256488853693,0.49209495040178297,3.1419705767601727
1620148750370467000,10.347467041015625,-4.463690304675698,0.1017021326303482,3.257949364285171
1620148750380471000,10.357470947265625,-4.015459630441665,-0.28664368948340413,3.3154055279538035
1620148750390475000,10.36747509765625,-3.5743519399553536,-0.6578384703099728,3.334589828634262
1620148750400478700,10.377478759765625,-3.217007989826798,-1.000903719717264,3.363907693055272
1620148750410483000,10.38748291015625,-2.938641130301356,-1.2726152130067347,3.398792836214602
1620148750420488000,10.397488037109374,-2.648506676092744,-1.4823919359087943,3.485356144163012
1620148750430492000,10.407491943359375,-2.398370616403967,-1.6594062068939208,3.5831942948415874
1620148750440495900,10.417495849609375,-2.2258770377136767,-1.7585013718962668,3.6566026454016565
1620148750450500000,10.4275,-2.0331500876814124,-1.764969106605649,3.766101715518534
1620148750460504000,10.437504150390625,-1.8422234650693832,-1.7007430104106664,3.9064942288100717
1620148750470507800,10.4475078125,-1.656104827260971,-1.5290794528037308,4.036304265549779
1620148750480512800,10.4575126953125,-1.4656890767805277,-1.2633546327084302,4.169740968354046
1620148750490517000,10.46751708984375,-1.2423667897373438,-0.9132488171398639,4.29064172245115
1620148750500521000,10.47752099609375,-0.9864233589440584,-0.5578261904627084,4.376694158267974
1620148750510525000,10.48752490234375,-0.648456893980503,-0.2612567347705364,4.37926751588732
1620148750520529200,10.497529052734375,-0.1989649676389992,-0.03664367726445198,4.349740977151692
1620148750530532900,10.507532958984376,0.396229853361845,0.15113748692870138,4.311011725784838
1620148750540538000,10.5175380859375,2.476481883957982,0.32561668647825714,4.094394927729666
1620148750550541800,10.527541748046875,8.797395800566672,0.6493290006399154,3.3770033214718103
1620148750560546000,10.537546142578124,8.079484262087941,0.7665694786638021,2.509667529723048
1620148750570550000,10.547550048828125,4.299094785758853,0.43582419712543485,2.1889362771987915
1620148750580554000,10.557553955078125,2.5834856301277873,0.08693126447796821,1.986339821189642
1620148750590558000,10.567557861328124,1.3271546124458313,-0.23091712608635423,1.5226947202026844
1620148750600563000,10.57756298828125,0.3533762155413627,-0.5532938077300786,0.8484399526208639
1620148750610567000,10.58756689453125,-0.290952200332284,-0.8937216943711042,0.059751727259904144
1620148750620571000,10.59757080078125,-0.9727519034009426,-1.1528916859954594,-0.7062576333031058
1620148750630574800,10.607574951171875,-1.5102597476519644,-1.2089011579871176,-1.253119654420018
1620148750640579000,10.6175791015625,-1.7180905971832572,-1.0366197607427834,-1.9549455888859926
1620148750650584000,10.627583984375,-1.7854444700099528,-0.7252063716620206,-2.7738302150681613
1620148750660588000,10.637588134765625,-1.9233261695243418,-0.3167220168828964,-3.3910581503093242
1620148750670592000,10.647592041015624,-2.128962577751279,0.15653905371129512,-3.7975580532729625
1620148750680596000,10.657595947265625,-2.338837646461278,0.6419301225602626,-4.023931106188893
1620148750690600000,10.667599853515625,-2.5290087745308876,1.0528419967472553,-3.988308296404779
1620148750700604000,10.67760400390625,-2.6862428247690198,1.4019178847461937,-3.7354859202414747
1620148750710609000,10.68760888671875,-2.67658184697628,1.7147960856825113,-3.325074396792054
1620148750720613000,10.697613037109376,-2.3726735728286203,2.1392349654406306,-2.8147838644862175
1620148750730617000,10.7076171875,-1.6022567710869013,2.8438550606697794,-2.4302055782124397
1620148750740620800,10.717620849609375,-0.23860110471770166,3.905689926689863,-2.1236124488949772
1620148750750624800,10.727624755859376,1.3981773830436168,4.887772626081109,-1.8514684094071387
1620148750760629000,10.73762890625,2.2658612575776873,5.109730200642347,-1.5973878498762846
1620148750770634000,10.747634033203125,1.6175461101554334,4.257055386930704,-1.3496741950288413
1620148750780638000,10.757637939453126,0.4950729432992637,3.0220056422084567,-1.2503683098852634
1620148750790642000,10.767641845703125,0.11842764198184012,2.1217957548618314,-0.9132526165321468
1620148750800646100,10.777646240234375,1.4000393775232136,1.5135603966325522,0.2603521871462464
1620148750810649900,10.78764990234375,4.673970885446668,1.1086533158183096,2.2869581138812003
1620148750820653800,10.79765380859375,6.838691005277633,0.7602583958208561,3.769784495684504
1620148750830658800,10.807658935546876,4.791521744593978,0.1791699877142906,3.2981501495093104
1620148750840663000,10.8176630859375,2.0453958212703465,-0.6098585755169391,2.2800666008017956
1620148750850667000,10.8276669921875,0.4095979420442134,-1.2267051102250814,1.662245375842601
1620148750860671000,10.8376708984375,-0.32909875644035635,-1.5678157184332608,1.3227930562354624
1620148750870675000,10.847675048828124,-0.6149743110954761,-1.8854121800631283,1.2469099861249326
1620148750880679000,10.857678955078125,-0.671631433340907,-2.1274352220535278,1.0687501983664929
1620148750890684000,10.867683837890626,-0.8911964136771857,-2.306906238541007,1.1168445133194327
1620148750900688000,10.87768798828125,-1.3393570914149284,-2.430833646982908,1.0641601671624927
1620148750910692000,10.887692138671875,-1.8649398853987453,-2.45425427005887,0.9290838073924184
1620148750920696000,10.897696044921876,-2.2238807493299246,-2.3775164828151465,0.9243556098267436
1620148750930700000,10.907699951171875,-2.454509706124663,-2.2466379400610923,0.9506160594385117
1620148750940703700,10.917703857421875,-2.6734827119171616,-2.1258874080896377,0.9889309578508138
1620148750950709000,10.927708984375,-2.82982945792675,-1.9071575634032487,0.9540665652185678
1620148750960713000,10.937712890625,-3.000726707336306,-1.7402900079011916,0.8199120695337653
1620148750970717000,10.947717041015625,-3.3493197802543637,-1.5971289066791534,0.8114002617761492
1620148750980721000,10.957720947265624,-3.717020289224386,-1.4620061504840849,0.8325520631372928
1620148750990725000,10.96772509765625,-3.9881881771564482,-1.2464414918303488,0.8135385889790951
1620148751000730000,10.977730224609376,-4.175197772455215,-1.0054173977494238,0.7704448587924242
1620148751010733800,10.98773388671875,-4.208994828116894,-0.7775520604491233,0.6421252067409455
1620148751020737800,10.99773779296875,-4.139219865623116,-0.5741641618013381,0.43234336927235123
1620148751030742000,11.007741943359376,-3.904524390041828,-0.3721756085574627,0.1525558292940259
1620148751040746000,11.01774609375,-3.565529751074314,-0.235263046336174,-0.16261559714600443
1620148751050750000,11.02775,-3.2168747188359497,-0.1425403389751911,-0.4882724695041775
1620148751060755000,11.0377548828125,-2.862707645177841,-0.12197919698357582,-0.7410567056141794
1620148751070759200,11.04775927734375,-2.5724457651972767,-0.19966800134181975,-0.9175012138873339
1620148751080763000,11.057762939453125,-2.284859826427698,-0.40948038007915016,-0.9885938348509371
1620148751090766800,11.067766845703124,-1.9692975009739397,-0.7225228316664696,-1.0203631840772927
1620148751100771000,11.07777099609375,-1.6476947263121604,-1.006476551413536,-1.0358063985332846
1620148751110775000,11.087775146484375,-1.3546302100010215,-1.1955232054978608,-1.0542929262079297
1620148751120780000,11.097780029296874,-1.0893582482397555,-1.211854747095704,-1.1117071504309772
1620148751130783700,11.10778369140625,-0.8771179117031395,-1.030693293303251,-1.1841333580859004
1620148751140787700,11.11778759765625,-0.6769499980151653,-0.6975695921957492,-1.241052346137911
1620148751150791700,11.127791748046874,-0.46725963822230693,-0.2971785275012255,-1.227814386641234
1620148751160795600,11.137795654296875,-0.24520459463596342,0.07215338206291198,-1.1582906224295497
1620148751170799600,11.147799560546876,0.051889323321729894,0.3359954571515322,-0.9912588162764906
1620148751180804600,11.1578046875,0.42126317233145233,0.4536936158150434,-0.7129650219872593
1620148751190808800,11.167808837890625,0.9120711516626179,0.4219049773663282,-0.39339145159814504
1620148751200812800,11.177812744140626,1.8785396639451384,0.3633247781038284,0.02172192939929664
1620148751210816500,11.18781640625,5.638197610151767,0.3944721960395574,1.2473024925738572
1620148751220820700,11.19782080078125,6.945522317489981,0.4133873243898153,1.8122943368822335
1620148751230824700,11.20782470703125,2.6636194895505905,0.34052082562148567,0.6597650544583797
1620148751240829700,11.21782958984375,0.850099410265684,0.11775485728681087,-0.21732991476058958
1620148751250833700,11.227833740234376,0.45756139715909955,-0.07998714442849159,-0.44490269885510203
1620148751260838000,11.237837890625,0.1519827055811882,-0.2384346621096134,-0.6082178225725889
1620148751270841600,11.247841552734375,-0.016731354570388792,-0.36888241223096846,-0.7518626156583428
1620148751280845600,11.257845458984375,-0.10204086306542158,-0.4321458008736372,-0.9010335517544299
1620148751290850600,11.2678505859375,-0.12791297094672918,-0.48073769008517264,-1.0743446573726831
1620148751300854800,11.277854736328125,-0.07488543737530708,-0.5228635981529951,-1.2414543510675429
1620148751310858800,11.287858642578126,0.0008703530937433242,-0.5586649793744087,-1.4006988643452525
1620148751320862700,11.29786279296875,0.08255436456799507,-0.5628524941921234,-1.5089078946515917
1620148751330866700,11.30786669921875,0.219874923068285,-0.5349275454342365,-1.5755489430338143
1620148751340870700,11.31787060546875,0.42605508278310295,-0.41419571816325185,-1.6010101320266723
1620148751350875600,11.327875732421875,0.5732815337479115,-0.01462006150484085,-1.6138748742967843
1620148751360879600,11.337879638671875,0.5962845159336925,0.6725836194992065,-1.6549183939553795
1620148751370883600,11.347883544921874,0.5578092393279075,1.4722212550282479,-1.739101090377569
1620148751380887800,11.3578876953125,0.463243242187798,2.3023691796332595,-1.8523427080236374
1620148751390891800,11.367891845703125,0.3414376482054591,3.146846658363938,-1.9928559250853954
1620148751400895500,11.3778955078125,0.21029197894781826,3.934073140609264,-2.187154216087609
1620148751410900500,11.387900390625,0.054713879223167894,4.639113507077098,-2.4168631354279815
1620148751420904700,11.39790478515625,-0.14176175581812858,5.2091562050342555,-2.640342366598546
1620148751430908700,11.40790869140625,-0.2967217236444354,5.565152247685194,-2.84868438052237
1620148751440912600,11.41791259765625,-0.45441696165353057,5.632469295632839,-2.928844543430209
1620148751450916900,11.427916748046876,-0.6099219961419701,5.285628034818172,-2.8128590339034796
1620148751460920800,11.4379208984375,-0.7482227978512644,4.508023367398977,-2.509460608974099
1620148751470925800,11.44792578125,-0.7947446027904749,3.4255414346694946,-2.0803908545449374
1620148751480929500,11.457929443359374,-0.7422757260151207,2.1818588861584662,-1.5741089733585714
1620148751490933800,11.467933837890625,-0.560003534501791,0.8926958584547042,-1.1215013992145657
1620148751500937700,11.477937744140625,-0.39915933094248174,-0.3612614158332348,-0.8478575496230274
1620148751510941700,11.487941650390624,-0.25522505339086055,-1.4833552279829978,-0.6811421890079975
1620148751520945700,11.497945556640625,-0.2378080546438694,-2.4921780502617357,-0.5030877613201737
1620148751530951000,11.507950927734376,-0.2619488086879253,-3.2218530917704102,-0.5406324790775776
1620148751540954600,11.51795458984375,-0.396990243275091,-3.7339112182706593,-0.6160869485124946
1620148751550958600,11.52795849609375,-0.7263741733323782,-3.925916137638688,-0.42180414734035726
1620148751560962600,11.537962646484376,-0.9884381328325718,-3.584293488255143,-0.23687574222981927
1620148751570966800,11.547966796875,-1.146152075542137,-2.898437130206823,0.1355532930994406
1620148751580970800,11.557970703125,-1.35643740555346,-2.0365017361968754,0.6256798295050859
1620148751590975700,11.567975830078124,-1.6593623677521943,-0.9706500357508658,1.1002657920274883
1620148751600979700,11.577979736328125,-2.055288854253292,0.2967775454849005,1.6747255027092993
1620148751610983700,11.587983642578125,-2.4027017774760724,1.6820160981088876,2.427935587453842
1620148751620987600,11.597987548828126,-2.94053615026772,3.0887966204553843,3.253150147309899
1620148751630991600,11.60799169921875,-3.387552188014984,4.334446085125208,4.055503471538424
1620148751640995800,11.617995849609375,-3.812559223049879,5.365047023969888,4.812587913498282
1620148751651000800,11.628000732421874,-4.076802864676714,6.000269173324107,5.400861849194765
1620148751661004800,11.6380048828125,-4.142074670532345,6.105119540852308,5.792489177197218
1620148751671008500,11.648008544921876,-4.046628091165423,5.707595556026697,5.967285772132874
1620148751681012700,11.6580126953125,-3.925735520374775,4.682042548221349,5.738457727280259
1620148751691016700,11.6680166015625,-3.6083687758475538,3.1823107704550027,5.169475352030992
1620148751701020700,11.678020751953126,-3.2467712599277494,1.6431839708894491,4.5994770777374505
1620148751711025700,11.688025634765625,-2.883462848436832,0.19111469253003596,4.14317620203346
1620148751721029600,11.698029541015625,-2.4867852513074875,-1.1336515634745359,3.8369390465468167
1620148751731033900,11.708033935546876,-2.109091756111383,-2.2582670030564067,3.6633199709579345
1620148751741037600,11.71803759765625,-1.6618986082315443,-3.1951813579440116,3.5940848144292827
1620148751751041500,11.72804150390625,-1.212680603460595,-3.9344548334032297,3.5633377939879893
1620148751761045800,11.738045654296876,-0.7624660619329661,-4.464093040257692,3.534939674760401
1620148751771050800,11.74805078125,-0.26062311304211616,-4.861767831730842,3.4266303989499804
1620148751781054700,11.7580546875,0.8718857101380825,-5.249713840872049,3.172997875447571
1620148751791058700,11.76805859375,4.764313419672846,-5.6715176959514615,2.495712069606781
1620148751801063000,11.77806298828125,6.351822849613428,-5.647717718169093,1.4776625692993401
1620148751811066600,11.788066650390626,3.4425223800867792,-5.05825135781765,0.8992363661393523
1620148751821070600,11.798070556640624,2.418627660882473,-4.574771091026068,0.3048755117446184
1620148751831075600,11.80807568359375,1.0057295324385165,-4.4268274317026135,-0.17745295466333627
1620148751841079800,11.818079833984376,-0.14211129990816115,-4.5506513797700405,-0.6874599938526749
1620148751851083800,11.828083740234375,-0.7847418258227408,-4.815713352042437,-1.217736060219258
1620148751861087700,11.838087646484375,-0.9756394415359944,-5.001955470100045,-1.5826890240468083
1620148751871091700,11.848091796875,-0.6141955818079412,-5.119886268475652,-1.8597342795796692
1620148751881095700,11.858095703125,0.28522870811894535,-5.250149894201755,-2.063192320854217
1620148751891100700,11.8681005859375,1.8581565088689327,-5.390229980543255,-2.0641040288716552
1620148751901104600,11.878104736328124,4.15851434867978,-5.3894081427663565,-1.6264121381781995
1620148751911108600,11.888108642578125,3.874070799589157,-5.109308760359883,-0.6943018225714563
1620148751921112800,11.89811279296875,2.1147652717031535,-4.77262590546608,-0.12506269608214496
1620148751931116800,11.90811669921875,0.6439813560016453,-4.416846720436215,-0.14559811911061404
1620148751941120500,11.91812060546875,-0.34715456454753874,-3.9970495290040966,-0.2922656210184097
1620148751951125500,11.92812548828125,-0.6496469805479049,-3.53351548717618,-0.43392303967922924
1620148751961129700,11.938129638671874,-0.2643869956202805,-2.933721794077754,-0.8094283771812916
1620148751971133700,11.9481337890625,0.7002637997157871,-2.165430898448825,-1.6992347978048026
1620148751981137700,11.9581376953125,1.2659750443398952,-1.3569266503751276,-2.5897575500041246
1620148751991142000,11.968141845703125,0.5147592021524906,-0.827911543855071,-2.532056763924658
1620148752001147000,11.97814697265625,-0.32364801675379273,-0.36157121243476864,-2.1284373848333953
1620148752011150600,11.988150634765624,-0.5034311679303646,0.20636896028518675,-1.8304729676514864
1620148752021154600,11.998154541015625,0.30855244669169185,0.9056202219575643,-1.9592703202173112
1620148752031158800,12.00815869140625,1.9971558142364023,1.5663210959613323,-2.2901810214504597
1620148752041162800,12.018162841796874,3.55795522416681,1.8319389485508202,-1.7088380540609358
1620148752051166700,12.028166748046875,3.9403222641319036,1.55899586763978,-0.019129063361883164
1620148752061171700,12.038171630859376,3.876847278565168,0.7421943313419819,1.4472636316433547
1620148752071176000,12.048176025390624,3.333826735307276,-0.4944856449306011,2.1381328494176266
1620148752081179600,12.0581796875,2.3405399203345176,-1.6958897251605987,2.050825445103645
1620148752091183600,12.06818359375,1.2433505400776863,-2.492494861125946,1.3666221149593591
1620148752101187600,12.0781875,0.5215034157156944,-2.7745512228190896,0.4793637713834643
1620148752111191800,12.08819189453125,0.04898059626817703,-2.4776912597477434,-0.2699687412753701
1620148752121196800,12.09819677734375,-0.4076876514434814,-1.749802517133951,-0.8182198786631226
1620148752131201000,12.108200927734375,-0.6520324143797159,-0.9817840087056159,-1.205950199227035
1620148752141205000,12.118205078125,-0.859011469387263,-0.2835509841650724,-1.3605173683434724
1620148752151209000,12.128208984375,-1.4450164372384546,0.24498598344922065,-1.3394003460347652
1620148752161213000,12.138212890625,-2.0820318997502327,0.3710761228829622,-1.1527239282131194
1620148752171217000,12.148216796875,-2.4821546688973903,0.03502396710813045,-0.8502759358763694
1620148752181222000,12.158221923828124,-2.7497306698173283,-0.6783703862071037,-0.45806817763745783
1620148752191226000,12.16822607421875,-2.7571044134557248,-1.508636968755722,-0.2955938886582851
1620148752201230000,12.17822998046875,-2.461328738489747,-2.3051930048823355,-0.3155108875274658
1620148752211233800,12.18823388671875,-1.9494576589941977,-2.9557465788811443,-0.2931628621190786
1620148752221238000,12.198238037109375,-1.3338479726046324,-3.4396915405750272,-0.1032359180688858
1620148752231242000,12.208241943359376,-0.8105471520781516,-3.7499013990849255,0.15944938820004462
1620148752241247000,12.2182470703125,-0.29890666646808384,-3.9540468381017444,0.3082020258188248
1620148752251251000,12.2282509765625,0.40687721184343095,-4.099999615868926,0.30793256122767926
1620148752261255000,12.2382548828125,1.3029644663020967,-4.125411120501161,0.34604163486957545
1620148752271259100,12.248259033203125,2.0963088469058273,-3.894920695394277,0.7429699918895959
1620148752281262800,12.258262939453125,2.567331783184409,-3.385035821279883,1.6983780348449944
1620148752291266800,12.268266845703126,3.0040105513125654,-2.7536855449229476,2.8872645788073537
1620148752301271800,12.278271728515625,3.280392666761577,-2.2644296173393723,4.038655797111987
1620148752311276000,12.288276123046876,3.6371599860459565,-2.210579953730106,4.868144965547323
1620148752321280000,12.298280029296874,3.5681285353958603,-2.4918144776463507,5.190835535445809
1620148752331284000,12.308283935546875,3.033468116465211,-2.7549019349753854,5.18147149477303
1620148752341288000,12.318287841796876,2.4919974329978225,-2.9062866746634244,5.018427881473302
1620148752351292000,12.3282919921875,2.1397002448648212,-3.0893612686008214,4.649551022200286
1620148752361297000,12.338296875,1.5808809517115354,-3.407875429597497,3.7876676506385203
1620148752371300900,12.34830078125,0.8787485816448927,-3.790076757606864,2.7293343629986047
1620148752381305000,12.35830517578125,-0.13994739987254143,-4.029178943714499,1.6104107053175567
1620148752391309000,12.36830908203125,-1.3945979171216487,-3.776411804869771,0.27898411464095113
1620148752401313000,12.37831298828125,-2.840110028922558,-3.0625732149183746,-0.9856491597011685
1620148752411317000,12.38831689453125,-4.2333483481287955,-1.7954203589707611,-2.01590318480432
1620148752421322000,12.398322021484375,-5.73118159879744,0.16400632085204123,-2.840406089259684
1620148752431326000,12.408325927734374,-7.426113292580842,2.4609154815137386,-3.603475158587098
1620148752441330000,12.418329833984375,-8.809255749708413,4.654921317061782,-4.513754020005464
1620148752451334000,12.428333984375,-9.95570074378252,6.572936959087849,-5.499947661846876
1620148752461338000,12.438338134765624,-11.043776550996302,7.794695845082402,-6.367112773203849
1620148752471341800,12.448341796875,-12.236086639666556,8.57331816511154,-7.541163567084074
1620148752481346800,12.458346923828126,-18.295338747835157,16.006222433006762,-11.914005726099013
1620148752491350800,12.468350830078125,-13.614167137229442,17.305969983088968,-14.788253002423048
1620148752501355000,12.47835498046875,0.5262018026649952,0.03105301765054464,-8.533205934953688
1620148752511359000,12.48835888671875,0.9303864144235848,0.2795131069511175,-5.221804089683294
1620148752521363000,12.498363037109375,3.770508718305826,-0.9911350437663495,-2.195798271922767
1620148752531367200,12.5083671875,5.588073689067364,-1.2322984001874924,0.1262017831146717
1620148752541372200,12.5183720703125,6.372481022238731,-1.190690670774877,2.0783821450710294
1620148752551376000,12.5283759765625,6.521887155330181,-0.9429498356595635,3.6366146271228788
1620148752561379800,12.5383798828125,6.345803443193435,-0.5861272790566087,4.832304129098356
1620148752571384000,12.548384033203124,5.887533605504036,-0.1455349907465279,5.678144420614839
1620148752581388000,12.558387939453125,-0.3874263691812753,2.1063219991371036,4.15874903421849
1620148752591393000,12.56839306640625,-9.512246782431006,5.802659273555874,0.9136506759390235
1620148752601397000,12.57839697265625,11.091195304775237,1.070045060482621,4.789619125843048
1620148752611401000,12.58840087890625,7.817791473987698,1.8691925744071602,3.934291167274117
