time,seconds_elapsed,z,y,x
1620148740046167000,0.0231669921875,1.1874656677246094,-0.2095707207918167,0.7333543300628662
1620148740056171300,0.033171142578125,1.1224956512451172,-0.11768468469381332,0.8271602392196655
1620148740066175000,0.043175048828125,1.015516757965088,-0.0006217067129909992,0.886746346950531
1620148740076179000,0.053178955078125,0.8834611177444458,0.12455131858587265,0.950254499912262
1620148740086183200,0.06318310546875,0.7755091190338135,0.09611248224973679,0.9840031266212463
1620148740096187100,0.073187255859375,0.7011934518814087,0.04452715069055557,1.0308239459991455
1620148740106192100,0.083192138671875,0.7003591060638428,-0.033624645322561264,1.1649558544158936
1620148740116196400,0.0931962890625,0.7755155563354492,-0.23307915031909943,1.4163424968719482
1620148740126200300,0.103200439453125,0.8995214104652405,-0.4860789179801941,1.7912532091140747
1620148740136204300,0.113204345703125,1.0455178022384644,-0.7593753933906555,2.199272871017456
1620148740146208300,0.123208251953125,1.1333369016647339,-1.1893044710159302,2.5077972412109375
1620148740156212200,0.133212158203125,1.0869098901748657,-1.8375850915908813,2.6480565071105957
1620148740166216400,0.143216552734375,0.9710122346878052,-2.4121546745300293,2.6794865131378174
1620148740176221400,0.153221435546875,0.9390654563903809,-2.5709164142608643,2.6292312145233154
1620148740186225400,0.163225341796875,0.9568788409233093,-2.4089646339416504,2.367812156677246
1620148740196229000,0.17322900390625,0.9767109155654907,-1.9522669315338135,1.8033661842346191
1620148740206233300,0.1832333984375,1.0247529745101929,-1.236277461051941,1.2178443670272827
1620148740216237300,0.1932373046875,1.1532838344573975,-0.71266770362854,0.9566145539283752
1620148740226241300,0.2032412109375,1.2292685508728027,-0.6161746978759766,0.8750059604644775
1620148740236246300,0.213246337890625,1.2751758098602295,-1.047116994857788,1.022409439086914
1620148740246250500,0.22325048828125,1.3644747734069824,-1.7662861347198486,1.354753851890564
1620148740256254500,0.23325439453125,1.4564008712768555,-2.3193111419677734,1.7264742851257324
1620148740266258200,0.243258056640625,1.4744285345077515,-2.471862554550171,1.9777480363845825
1620148740276262400,0.253262451171875,1.4436075687408447,-2.1825389862060547,2.0189855098724365
1620148740286266400,0.263266357421875,1.4209868907928467,-1.8421289920806885,1.9415881633758545
1620148740296271400,0.273271240234375,1.3930821418762207,-1.6273465156555176,1.933021068572998
1620148740306275300,0.283275390625,1.4090476036071777,-1.4330809116363525,1.901556372642517
1620148740316279300,0.293279296875,1.564653754234314,-1.3216817378997803,1.8526426553726196
1620148740326283300,0.303283203125,1.7744739055633545,-1.5370359420776367,1.8628751039505005
1620148740336287200,0.313287353515625,1.7851216793060303,-1.8893989324569702,1.9395908117294312
1620148740346291200,0.323291259765625,1.4918155670166016,-2.08726167678833,2.0657730102539062
1620148740356295400,0.33329541015625,0.9950171113014221,-2.2870047092437744,2.122915029525757
1620148740366300400,0.343300537109375,0.47827041149139404,-2.359344482421875,2.0836892127990723
1620148740376304400,0.353304443359375,0.2199930101633072,-2.471605062484741,1.9294378757476807
1620148740386308400,0.363308349609375,0.3373588025569916,-2.088569164276123,2.058293342590332
1620148740396312300,0.373312255859375,0.4700244963169098,-1.8795140981674194,2.145718812942505
1620148740406316300,0.38331640625,0.7326614260673523,-2.1044344902038574,2.1755483150482178
1620148740416320300,0.3933203125,0.8684858679771423,-1.922324299812317,1.9433331489562988
1620148740426325200,0.4033251953125,0.6579917073249817,-1.1463412046432495,0.9342736601829529
1620148740436329500,0.41332958984375,0.17595873773097992,-0.09675323218107224,-0.13208791613578796
1620148740446333400,0.42333349609375,-0.4999861717224121,0.5298709869384766,-0.7013106346130371
1620148740456337200,0.433337158203125,-0.9598107933998108,0.6543571949005127,-0.8768165707588196
1620148740466341400,0.44334130859375,-1.0879759788513184,0.4233165383338928,-0.9814431071281433
1620148740476345300,0.453345458984375,-0.9291181564331055,0.07068946212530136,-0.9628775715827942
1620148740486350300,0.463350341796875,-0.5667881965637207,-0.3884962499141693,-0.7649498581886292
1620148740496354300,0.473354248046875,-0.021624956279993057,-1.1040220260620117,-0.3330751061439514
1620148740506358300,0.483358154296875,0.7982169389724731,-2.4201080799102783,0.5154508948326111
1620148740516362500,0.493362548828125,1.3616724014282227,-4.397610664367676,2.073755979537964
1620148740526366200,0.5033662109375,1.5864522457122803,-5.290771961212158,3.2872257232666016
1620148740536370200,0.5133701171875,1.8743114471435547,-5.024082183837891,3.3838753700256348
1620148740546375200,0.523375244140625,1.9283500909805298,-3.613502264022827,2.64568829536438
1620148740556379400,0.53337939453125,1.9116779565811157,-1.988919734954834,1.6701494455337524
1620148740566383400,0.54338330078125,1.9498311281204224,-0.7140546441078186,0.6923621296882629
1620148740576387300,0.55338720703125,1.8106580972671509,-0.11212493479251862,-0.10233260691165924
1620148740586391600,0.5633916015625,1.7695986032485962,-0.3550553023815155,-0.6657176613807678
1620148740596395300,0.573395263671875,1.9759879112243652,-0.9894528985023499,-1.173618197441101
1620148740606399200,0.583399169921875,2.4117581844329834,-1.6578576564788818,-1.6903969049453735
1620148740616404200,0.593404296875,3.072856903076172,-2.2187676429748535,-2.271805763244629
1620148740626408400,0.603408447265625,3.849698781967163,-2.5545690059661865,-2.942443370819092
1620148740636412400,0.613412353515625,4.447514533996582,-2.467374563217163,-3.532668352127075
1620148740646416400,0.62341650390625,4.799571990966797,-1.7850911617279053,-3.7301697731018066
1620148740656420400,0.63342041015625,4.939102649688721,-1.0273782014846802,-3.7282581329345703
1620148740666424300,0.64342431640625,4.794083595275879,-0.21158836781978607,-3.5250182151794434
1620148740676429300,0.65342919921875,4.552708625793457,0.27491357922554016,-3.0180511474609375
1620148740686433300,0.663433349609375,4.141490936279297,0.23312696814537048,-2.2992935180664062
1620148740696437200,0.673437255859375,3.6897830963134766,-0.34200865030288696,-1.3636099100112915
1620148740706441500,0.68344140625,3.2548561096191406,-1.444295048713684,-0.2530573904514313
1620148740716445400,0.693445556640625,2.872875452041626,-2.764347791671753,0.974773108959198
1620148740726449200,0.70344921875,2.5406699180603027,-4.150207042694092,2.097254991531372
1620148740736454100,0.7134541015625,2.157729387283325,-5.291069507598877,2.870544195175171
1620148740746458400,0.723458251953125,1.5327577590942383,-5.309861183166504,3.275986671447754
1620148740756462300,0.73346240234375,1.0623146295547485,-3.887012481689453,3.2066938877105713
1620148740766466300,0.74346630859375,1.0231573581695557,-2.883899450302124,2.821423053741455
1620148740776470500,0.753470458984375,1.0747250318527222,-2.898743152618408,2.592198371887207
1620148740786474200,0.76347412109375,1.1411495208740234,-2.8194103240966797,2.7073256969451904
1620148740796478200,0.773478271484375,1.2934828996658325,-2.769923448562622,2.9168317317962646
1620148740806483200,0.783483154296875,1.2446229457855225,-2.3775763511657715,3.0225114822387695
1620148740816487400,0.7934873046875,1.1878912448883057,-1.768736720085144,3.0638411045074463
1620148740826491400,0.803491455078125,1.318549633026123,-0.866736650466919,2.987248182296753
1620148740836495400,0.813495361328125,1.8130766153335571,0.20459425449371338,2.8033294677734375
1620148740846499300,0.823499267578125,2.661231756210327,0.9523435831069946,2.6429367065429688
1620148740856503300,0.83350341796875,3.512346029281616,1.201880931854248,2.5393242835998535
1620148740866508300,0.84350830078125,4.161834239959717,1.1695538759231567,2.4783501625061035
1620148740876512300,0.85351220703125,4.665045261383057,1.1445887088775635,2.383617401123047
1620148740886516200,0.86351611328125,5.005565166473389,1.444562315940857,2.188887119293213
1620148740896520400,0.8735205078125,5.211493015289307,1.8382129669189453,1.9777969121932983
1620148740906524400,0.8835244140625,5.100222110748291,1.7850031852722168,1.8613835573196411
1620148740916528000,0.893528076171875,4.855399131774902,1.7459276914596558,1.7490644454956055
1620148740926533000,0.903533203125,4.368382930755615,1.6276910305023193,1.3052263259887695
1620148740936537300,0.913537353515625,3.5950698852539062,1.2407816648483276,0.3650289475917816
1620148740946541300,0.923541259765625,2.8449575901031494,1.0818902254104614,-0.33302685618400574
1620148740956545300,0.933545166015625,2.3227720260620117,1.2237285375595093,-0.5560656785964966
1620148740966549500,0.943549560546875,2.0497348308563232,1.4246091842651367,-0.48190945386886597
1620148740976553500,0.953553466796875,1.905593991279602,1.6317683458328247,-0.2618575096130371
1620148740986558500,0.963558349609375,1.869798183441162,1.801988124847412,0.03372594341635704
1620148740996562200,0.973562255859375,1.9420089721679688,1.890726923942566,0.3658725619316101
1620148741006566400,0.98356640625,2.074892282485962,1.7710644006729126,0.620360791683197
1620148741016570400,0.9935703125,2.3683457374572754,1.8118246793746948,0.7917670011520386
1620148741026574300,1.00357421875,2.706132650375366,1.8562883138656616,0.8925255537033081
1620148741036578300,1.013578369140625,3.0578253269195557,2.0053164958953857,0.9651438593864441
1620148741046582300,1.023582275390625,3.398449659347534,2.254572868347168,0.9639601111412048
1620148741056587300,1.033587158203125,3.6608920097351074,2.763062000274658,0.6332740187644958
1620148741066591200,1.04359130859375,3.8437583446502686,3.232597589492798,0.1988307386636734
1620148741076595200,1.05359521484375,3.9630126953125,3.466987133026123,-0.19487819075584412
1620148741086599400,1.063599365234375,3.9678382873535156,3.583404541015625,-0.47737568616867065
1620148741096603400,1.073603271484375,3.9058940410614014,3.7702279090881348,-0.745874285697937
1620148741106607400,1.083607421875,3.648690700531006,3.429169178009033,-0.7590436339378357
1620148741116611800,1.09361181640625,3.2237720489501953,2.9828712940216064,-0.6549144983291626
1620148741126615800,1.10361572265625,2.7968568801879883,2.5467276573181152,-0.6878023743629456
1620148741136619800,1.113619873046875,2.2953405380249023,1.860068678855896,-0.6357200741767883
1620148741146623500,1.12362353515625,1.6925122737884521,1.0954599380493164,-0.45013028383255005
1620148741156627700,1.133627685546875,0.9780092835426331,0.24737852811813354,-0.2875615656375885
1620148741166631700,1.143631591796875,0.1741541177034378,-0.5299329161643982,-0.13616564869880676
1620148741176635600,1.1536357421875,-0.5763382315635681,-1.1464755535125732,-0.033827535808086395
1620148741186640600,1.163640625,-1.1861014366149902,-1.4131842851638794,-0.013432781212031841
1620148741196644900,1.173644775390625,-1.5630728006362915,-1.2537908554077148,-0.09798991680145264
1620148741206648600,1.183648681640625,-1.6785900592803955,-0.790449857711792,-0.20052482187747955
1620148741216652500,1.193652587890625,-1.5727349519729614,-0.18051716685295105,-0.23663116991519928
1620148741226656800,1.20365673828125,-1.2951022386550903,0.36189815402030945,-0.13556793332099915
1620148741236660700,1.21366064453125,-0.8603092432022095,0.7270463109016418,0.11464649438858032
1620148741246665700,1.223665771484375,-0.31938496232032776,0.8611684441566467,0.5056869387626648
1620148741256669700,1.233669677734375,0.16352100670337677,0.9669405817985535,0.9086045026779175
1620148741266674000,1.243673828125,0.525115430355072,1.1231104135513306,1.2335729598999023
1620148741276677600,1.253677734375,0.7645543217658997,1.3003332614898682,1.4839818477630615
1620148741286681600,1.263681640625,0.8926747441291809,1.4161399602890015,1.6741617918014526
1620148741296685600,1.273685546875,0.9135278463363647,1.4916749000549316,1.7995771169662476
1620148741306690800,1.28369091796875,0.8421724438667297,1.5208525657653809,1.8613818883895874
1620148741316694800,1.29369482421875,0.6942580342292786,1.5117422342300415,1.881007194519043
1620148741326698800,1.30369873046875,0.5068674087524414,1.4397239685058594,1.8779839277267456
1620148741336702700,1.31370263671875,0.2709031105041504,1.3148057460784912,1.8302276134490967
1620148741346706700,1.323706787109375,-0.01729460060596466,1.117053508758545,1.719170093536377
1620148741356710700,1.333710693359375,-0.42703500390052795,0.8057329654693604,1.3207494020462036
1620148741366714600,1.343714599609375,-0.8419888019561768,0.5348702669143677,0.7519336342811584
1620148741376719600,1.3537197265625,-1.113248586654663,0.43407967686653137,0.45913800597190857
1620148741386723800,1.363723876953125,-1.2351083755493164,0.5100940465927124,0.4641766846179962
1620148741396727800,1.373727783203125,-1.2513331174850464,0.7331132888793945,0.6413267850875854
1620148741406731500,1.3837314453125,-1.1937506198883057,1.0421196222305298,0.8657132387161255
1620148741416735700,1.39373583984375,-1.1176749467849731,1.4038448333740234,1.0811725854873657
1620148741426739700,1.40373974609375,-1.0570869445800781,1.7824221849441528,1.2731502056121826
1620148741436744700,1.41374462890625,-1.037371039390564,2.108602523803711,1.4223955869674683
1620148741446748700,1.423748779296875,-1.0643949508666992,2.3304924964904785,1.4922921657562256
1620148741456753000,1.4337529296875,-1.1215128898620605,2.366433620452881,1.470287799835205
1620148741466756900,1.4437568359375,-1.2096037864685059,2.1954619884490967,1.3492095470428467
1620148741476760600,1.453760498046875,-1.2891346216201782,1.885774850845337,1.1580077409744263
1620148741486764500,1.4637646484375,-1.3225138187408447,1.4890245199203491,0.9049686193466187
1620148741496768800,1.473768798828125,-1.3038051128387451,1.0531119108200073,0.6248741149902344
1620148741506773800,1.483773681640625,-1.209800362586975,0.6390822529792786,0.3477301299571991
1620148741516777700,1.49377783203125,-1.0413330793380737,0.2808692157268524,0.09559139609336853
1620148741526781700,1.50378173828125,-0.8040708899497986,0.03244289755821228,-0.10121408104896545
1620148741536785700,1.51378564453125,-0.5089163184165955,-0.11971281468868256,-0.23872002959251404
1620148741546789600,1.52378955078125,-0.17408637702465057,-0.1814616620540619,-0.31557247042655945
1620148741556793600,1.533793701171875,0.17040126025676727,-0.18109320104122162,-0.33719566464424133
1620148741566798600,1.543798583984375,0.4872015714645386,-0.11993876099586487,-0.2996477484703064
1620148741576802800,1.553802734375,0.7475859522819519,-0.04416068270802498,-0.23443269729614258
1620148741586806800,1.563806884765625,0.9223601222038269,0.005858008284121752,-0.16019494831562042
1620148741596810800,1.573810791015625,1.0086723566055298,0.01793421432375908,-0.09451926499605179
1620148741606814700,1.583814697265625,1.0184288024902344,0.013693130575120449,-0.03256455436348915
1620148741616818700,1.593818603515625,0.9595474004745483,0.00015970086678862572,0.021820250898599625
1620148741626823700,1.60382373046875,0.8618295788764954,-0.005021745339035988,0.07159660011529922
1620148741636827600,1.61382763671875,0.7378904819488525,0.01668499782681465,0.13376212120056152
1620148741646831900,1.623831787109375,0.6134667992591858,0.061429835855960846,0.208705872297287
1620148741656835800,1.6338359375,0.502011775970459,0.14110539853572845,0.29892876744270325
1620148741666839600,1.643839599609375,0.40835314989089966,0.24139338731765747,0.3982265889644623
1620148741676843500,1.653843505859375,0.3422883152961731,0.34207454323768616,0.4850946366786957
1620148741686848800,1.663848876953125,0.28992602229118347,0.42432892322540283,0.5495583415031433
1620148741696852700,1.673852783203125,0.24985085427761078,0.4647374451160431,0.5715434551239014
1620148741706856700,1.683856689453125,0.22278781235218048,0.4636087715625763,0.5526483654975891
1620148741716860700,1.693860595703125,0.20187713205814362,0.4185117781162262,0.5027346014976501
1620148741726865000,1.703864990234375,0.17811428010463715,0.3070555627346039,0.4205491542816162
1620148741736868600,1.71386865234375,0.1319483369588852,0.09351325035095215,0.2639511227607727
1620148741746872600,1.72387255859375,0.07075421512126923,-0.19147826731204987,0.07521370053291321
1620148741756877600,1.733877685546875,0.014806264080107212,-0.45701858401298523,-0.10060586035251617
1620148741766881800,1.7438818359375,-0.024086272343993187,-0.6683973670005798,-0.2248295396566391
1620148741776885800,1.7538857421875,-0.052466221153736115,-0.8239074945449829,-0.3109152615070343
1620148741786889700,1.7638896484375,-0.08537463843822479,-0.9274698495864868,-0.3742910325527191
1620148741796893700,1.773893798828125,-0.12479657679796219,-0.9825811982154846,-0.43309029936790466
1620148741806897700,1.783897705078125,-0.18462955951690674,-1.0151399374008179,-0.5116501450538635
1620148741816902700,1.793902587890625,-0.28997278213500977,-1.0604383945465088,-0.6343533992767334
1620148741826906600,1.80390673828125,-0.43874385952949524,-1.111355185508728,-0.8378183841705322
1620148741836910800,1.813910888671875,-0.6407973766326904,-1.1486366987228394,-1.1408462524414062
1620148741846914800,1.823914794921875,-0.8644919991493225,-1.1331983804702759,-1.5294057130813599
1620148741856918800,1.833918701171875,-1.0640687942504883,-1.0069406032562256,-1.8730711936950684
1620148741866922500,1.843922607421875,-1.1952568292617798,-0.7859935164451599,-2.021923065185547
1620148741876926700,1.8539267578125,-1.282943606376648,-0.5156235694885254,-1.9770759344100952
1620148741886931700,1.863931640625,-1.3620694875717163,-0.23766493797302246,-1.7949799299240112
1620148741896935700,1.873935791015625,-1.4635940790176392,0.038921330124139786,-1.545259952545166
1620148741906939600,1.883939697265625,-1.5993516445159912,0.2708650827407837,-1.2781928777694702
1620148741916944000,1.89394384765625,-1.7790523767471313,0.42764076590538025,-1.013142466545105
1620148741926947600,1.903947509765625,-1.983062744140625,0.48710358142852783,-0.754570722579956
1620148741936951600,1.91395166015625,-2.2106921672821045,0.44459065794944763,-0.51315838098526
1620148741946956500,1.92395654296875,-2.461594581604004,0.32216858863830566,-0.2937743067741394
1620148741956960800,1.933960693359375,-2.7105488777160645,0.13923940062522888,-0.08395177125930786
1620148741966964700,1.94396484375,-2.9351437091827393,-0.0989294946193695,0.11858988553285599
1620148741976968700,1.95396875,-3.105604648590088,-0.38027793169021606,0.3077062964439392
1620148741986973000,1.963972900390625,-3.1928582191467285,-0.6713292002677917,0.48697271943092346
1620148741996976600,1.9739765625,-3.159566879272461,-0.9196088910102844,0.6311258673667908
1620148742006981600,1.983981689453125,-2.9973249435424805,-1.079620122909546,0.7509721517562866
1620148742016985600,1.993985595703125,-2.711043119430542,-1.148189663887024,0.8435153961181641
1620148742026989800,2.00398974609375,-2.323826551437378,-1.12907874584198,0.9006668329238892
1620148742036993800,2.013993896484375,-1.8769097328186035,-1.0852352380752563,0.9169306755065918
1620148742046997800,2.023997802734375,-1.4178811311721802,-1.134342908859253,0.8344278335571289
1620148742057001500,2.03400146484375,-1.0378190279006958,-1.467064619064331,0.4420439600944519
1620148742067006500,2.04400634765625,-0.7460582256317139,-2.0678248405456543,-0.2542293965816498
1620148742077010700,2.0540107421875,-0.47307437658309937,-2.589484691619873,-0.8110047578811646
1620148742087014700,2.0640146484375,-0.17191188037395477,-2.929556131362915,-1.0173346996307373
1620148742097018600,2.0740185546875,0.1204879879951477,-3.1161653995513916,-0.9693542718887329
1620148742107022800,2.08402294921875,0.37987643480300903,-3.162102222442627,-0.7741475105285645
1620148742117026800,2.09402685546875,0.5660760998725891,-3.140965223312378,-0.5280066132545471
1620148742127031000,2.104031005859375,0.664776623249054,-3.044771909713745,-0.29765304923057556
1620148742137036000,2.1140361328125,0.6883956789970398,-2.862100839614868,-0.12662570178508759
1620148742147040300,2.124040283203125,0.6337758898735046,-2.5501797199249268,-0.05395921319723129
1620148742157044200,2.134044189453125,0.5232386589050293,-2.1493330001831055,-0.07436618208885193
1620148742167048200,2.144048095703125,0.38793328404426575,-1.754736304283142,-0.09699186682701111
1620148742177052200,2.15405224609375,0.25510329008102417,-1.4614912271499634,-0.0651092380285263
1620148742187056000,2.16405615234375,0.1425919532775879,-1.2751455307006836,0.019808050245046616
1620148742197061000,2.17406103515625,0.06648123264312744,-1.1528671979904175,0.12065032124519348
1620148742207065000,2.184065185546875,0.03473769128322601,-1.0612778663635254,0.18499335646629333
1620148742217069000,2.194069091796875,0.04418712109327316,-0.91353839635849,0.05427476391196251
1620148742227073300,2.2040732421875,0.05338700860738754,-0.6680940389633179,-0.3745303750038147
1620148742237077200,2.2140771484375,0.0567236989736557,-0.550864577293396,-0.7822621464729309
1620148742247081200,2.224081298828125,0.07371892035007477,-0.685888946056366,-0.9264795184135437
1620148742257085200,2.234085205078125,0.1346566081047058,-1.0212795734405518,-0.8624938726425171
1620148742267090200,2.244090087890625,0.251610666513443,-1.4385764598846436,-0.6768864989280701
1620148742277094100,2.25409423828125,0.3695032000541687,-1.800866723060608,-0.4358522295951843
1620148742287098000,2.26409814453125,0.44421258568763733,-1.9585245847702026,-0.24292832612991333
1620148742297102300,2.274102294921875,0.377820760011673,-1.7049609422683716,-0.22897398471832275
1620148742307106300,2.284106201171875,0.14324499666690826,-0.9690597057342529,-0.3382005989551544
1620148742317110000,2.294110107421875,-0.16139155626296997,-0.1262957900762558,-0.28510987758636475
1620148742327115000,2.304114990234375,-0.46034178137779236,0.5558521747589111,-0.04063780605792999
1620148742337119000,2.314118896484375,-0.7342034578323364,1.0063501596450806,0.31743648648262024
1620148742347123200,2.324123291015625,-0.9691592454910278,1.1827667951583862,0.7384582757949829
1620148742357127200,2.334127197265625,-1.150866150856018,1.109103798866272,1.1771773099899292
1620148742367131100,2.344131103515625,-1.281658411026001,0.8507485389709473,1.5997477769851685
1620148742377135400,2.35413525390625,-1.377991795539856,0.5264372825622559,1.960546851158142
1620148742387140400,2.364140380859375,-1.4755686521530151,0.30173200368881226,2.1931493282318115
1620148742397144000,2.37414404296875,-1.643925666809082,0.600170373916626,2.077193021774292
1620148742407148000,2.38414794921875,-1.8025752305984497,1.3749613761901855,1.5613796710968018
1620148742417152300,2.39415234375,-1.7868461608886719,1.5892541408538818,1.1773898601531982
1620148742427156200,2.40415625,-1.5885322093963623,1.1674541234970093,1.018356204032898
1620148742437160200,2.41416015625,-1.2965450286865234,0.6253916025161743,0.8843022584915161
1620148742447164200,2.4241640625,-1.037758231163025,0.368306040763855,0.6209984421730042
1620148742457169200,2.434169189453125,-0.8532180190086365,0.3298971354961395,0.31878095865249634
1620148742467173000,2.444173095703125,-0.7126529216766357,0.2229808270931244,0.12554733455181122
1620148742477177000,2.454177001953125,-0.6570929884910583,-0.010627158917486668,0.049980729818344116
1620148742487181300,2.464181396484375,-0.7105652689933777,-0.3562500476837158,0.058998458087444305
1620148742497185300,2.474185302734375,-0.8821597099304199,-0.7245131731033325,0.07566283643245697
1620148742507189200,2.484189208984375,-1.1775881052017212,-0.932407557964325,0.02555013820528984
1620148742517194200,2.4941943359375,-1.4909056425094604,-0.9139511585235596,-0.10227300226688385
1620148742527198000,2.504197998046875,-1.7392997741699219,-0.8919638395309448,-0.19987332820892334
1620148742537202200,2.5142021484375,-1.8705344200134277,-0.9581488966941833,-0.2049974948167801
1620148742547206100,2.5242060546875,-1.8879778385162354,-0.9672843217849731,-0.14974382519721985
1620148742557210000,2.534210205078125,-1.8002055883407593,-0.8399399518966675,-0.05570201575756073
1620148742567214300,2.54421435546875,-1.6240127086639404,-0.6184978485107422,0.06410986930131912
1620148742577219300,2.55421923828125,-1.388839840888977,-0.4051375389099121,0.216716930270195
1620148742587223000,2.56422314453125,-1.132463812828064,-0.23797942698001862,0.4089511036872864
1620148742597227000,2.57422705078125,-0.8916748762130737,-0.14945751428604126,0.6320381164550781
1620148742607231200,2.584231201171875,-0.6601817011833191,-0.2002226859331131,0.8895279765129089
1620148742617235200,2.594235107421875,-0.4478912353515625,-0.31018686294555664,1.191212773323059
1620148742627239200,2.6042392578125,-0.23674969375133514,-0.34108060598373413,1.49686861038208
1620148742637244200,2.614244140625,0.016364816576242447,-0.17851924896240234,1.8137011528015137
1620148742647248400,2.624248291015625,0.31315362453460693,0.1572590172290802,2.1186788082122803
1620148742657252000,2.634252197265625,0.651742160320282,0.5244457125663757,2.3731441497802734
1620148742667256000,2.644256103515625,1.007835030555725,0.7955081462860107,2.548929214477539
1620148742677260300,2.65426025390625,1.3574179410934448,0.9956719875335693,2.650862693786621
1620148742687264300,2.66426416015625,1.6793086528778076,1.1330490112304688,2.697073221206665
1620148742697268200,2.674268310546875,1.9625048637390137,1.1822656393051147,2.711153745651245
1620148742707273200,2.684273193359375,2.2158291339874268,1.1793694496154785,2.7213611602783203
1620148742717277000,2.69427685546875,2.466641426086426,1.1614173650741577,2.7383997440338135
1620148742727281200,2.70428125,2.726120710372925,1.1663440465927124,2.783634901046753
1620148742737285000,2.71428515625,3.0028750896453857,1.2340580224990845,2.8765740394592285
1620148742747289000,2.7242890625,3.288728952407837,1.412589192390442,3.002429723739624
1620148742757293300,2.734293212890625,3.5727806091308594,1.710366129875183,3.1619906425476074
1620148742767298300,2.74429833984375,3.824155807495117,2.0760445594787598,3.359968900680542
1620148742777302300,2.75430224609375,4.013964653015137,2.441981792449951,3.6091949939727783
1620148742787306000,2.764305908203125,4.116445064544678,2.6142752170562744,3.9082109928131104
1620148742797310200,2.774310302734375,4.118857383728027,2.400902032852173,4.2671990394592285
1620148742807314200,2.784314208984375,3.9727001190185547,1.680941104888916,4.640890121459961
1620148742817318100,2.794318115234375,3.6760215759277344,0.4711626172065735,4.922084331512451
1620148742827323100,2.8043232421875,3.320714235305786,-1.0516144037246704,5.085905075073242
1620148742837327400,2.814327392578125,2.884514093399048,-2.8235344886779785,4.981694221496582
1620148742847331000,2.8243310546875,2.341978073120117,-4.3697190284729,4.562889575958252
1620148742857335000,2.8343349609375,1.6863255500793457,-5.588082313537598,3.7591161727905273
1620148742867339000,2.844339111328125,1.1112374067306519,-6.141399383544922,2.6265902519226074
1620148742877343200,2.85434326171875,0.7426428198814392,-5.923769474029541,1.4996873140335083
1620148742887347200,2.86434716796875,0.4976637363433838,-5.178725719451904,0.7479999661445618
1620148742897352200,2.874352294921875,0.24716892838478088,-4.493139743804932,0.6301561594009399
1620148742907356200,2.884356201171875,-0.08099828660488129,-3.932299852371216,1.0353984832763672
1620148742917360000,2.894360107421875,-0.42314252257347107,-3.3675026893615723,1.6404087543487549
1620148742927364000,2.904364013671875,-0.6788275241851807,-2.4787209033966064,2.363614559173584
1620148742937368000,2.9143681640625,-0.42744719982147217,5.56879997253418,6.857986927032471
1620148742947372300,2.924372314453125,-0.162755087018013,4.899914741516113,6.530041217803955
1620148742957377300,2.934377197265625,0.1447979211807251,4.096259117126465,5.800568103790283
1620148742967381200,2.94438134765625,0.3959318697452545,3.3523218631744385,4.7315592765808105
1620148742977385000,2.954385009765625,0.5510686635971069,2.7278032302856445,3.421161413192749
1620148742987389200,2.96438916015625,0.6017488837242126,2.221139907836914,2.01619815826416
1620148742997393200,2.97439306640625,0.5461480021476746,1.7431484460830688,0.6460148096084595
1620148743007397000,2.984397216796875,0.5029619336128235,3.718111276626587,0.7898644208908081
1620148743017402000,2.994402099609375,0.663584291934967,8.38292121887207,2.4780426025390625
1620148743027406300,3.00440625,0.5685925483703613,6.754422664642334,1.7434101104736328
1620148743037410300,3.014410400390625,1.343122124671936,0.839227020740509,2.1724679470062256
1620148743047414000,3.0244140625,2.2491934299468994,-7.466944694519043,3.4276928901672363
1620148743057418000,3.03441796875,0.5619046092033386,0.6497313380241394,0.5676513314247131
1620148743067422200,3.044422119140625,-0.4532705843448639,0.8802375197410583,-1.800511360168457
1620148743077426200,3.05442626953125,-0.4917868375778198,-1.931755781173706,-1.345058798789978
1620148743087431200,3.06443115234375,-0.3938773274421692,0.06961161643266678,-0.9684624671936035
1620148743097435100,3.07443505859375,0.056349486112594604,0.2779695987701416,1.7461678981781006
1620148743107439400,3.084439453125,0.3983086943626404,3.061471700668335,1.9178656339645386
1620148743117443000,3.094443115234375,0.7906138896942139,-0.9892623424530029,-0.1735468953847885
1620148743127447000,3.104447021484375,0.5798656940460205,0.5341954827308655,0.4694075584411621
1620148743137451300,3.114451171875,0.08126948773860931,0.0019457344897091389,0.10009603947401047
1620148743147456300,3.124456298828125,0.0074306814931333065,0.14792850613594055,0.05413440614938736
1620148743157460200,3.134460205078125,-0.0045473165810108185,-0.17112280428409576,-0.055354222655296326
1620148743167464200,3.144464111328125,-0.008542590774595737,-0.09294012188911438,-0.056794993579387665
1620148743177468200,3.15446826171875,-0.020168479532003403,-0.125483438372612,-0.07293001562356949
1620148743187472100,3.16447216796875,-0.01876605860888958,-0.05652514100074768,-0.054426901042461395
1620148743197476000,3.17447607421875,-0.025294819846749306,-0.05107376351952553,-0.04567010700702667
1620148743207481000,3.184481201171875,-0.02971966192126274,-0.03139033913612366,-0.029514309018850327
1620148743217485300,3.1944853515625,-0.039943140000104904,-0.033439844846725464,-0.019294030964374542
1620148743227489300,3.2044892578125,-0.05904732644557953,-0.049749843776226044,-0.009026214480400085
1620148743237493200,3.2144931640625,-0.07175599783658981,-0.07570849359035492,-0.0038604438304901123
1620148743247497000,3.2244970703125,0.014537079259753227,-0.13011156022548676,0.01251986064016819
1620148743257501200,3.234501220703125,0.5555614233016968,-0.16277004778385162,0.062340594828128815
1620148743267505200,3.244505126953125,0.9099133610725403,-0.04557338356971741,0.09236934036016464
1620148743277510100,3.25451025390625,0.516319215297699,-0.04835152626037598,0.058260977268218994
1620148743287514000,3.26451416015625,0.3774915635585785,-0.05486668273806572,0.07490120828151703
1620148743297518300,3.274518310546875,0.3967439532279968,-0.05273591727018356,0.0839771032333374
1620148743307522000,3.28452197265625,0.36265280842781067,-0.0705585926771164,0.06532992422580719
1620148743317526000,3.294526123046875,0.28430306911468506,-0.06789211183786392,0.04267936199903488
1620148743327530200,3.3045302734375,0.22861607372760773,-0.10432016104459763,0.019009985029697418
1620148743337535200,3.31453515625,0.20767557621002197,-0.116327665746212,0.007397828623652458
1620148743347539200,3.324539306640625,0.19345667958259583,-0.11679638177156448,0.0031876370776444674
1620148743357543200,3.334543212890625,0.18404068052768707,-0.1462809294462204,-0.010851746425032616
1620148743367547400,3.34454736328125,0.14403679966926575,-0.18221496045589447,-0.01568937860429287
1620148743377551000,3.354551025390625,0.0739855021238327,-0.20176972448825836,-0.032501205801963806
1620148743387555000,3.36455517578125,-0.03783850371837616,-0.2475380152463913,-0.05033053457736969
1620148743397560000,3.37456005859375,-0.1879628300666809,-0.2807402014732361,-0.08106524497270584
1620148743407564300,3.384564208984375,-0.3439342975616455,-0.3187994360923767,-0.12050053477287292
1620148743417568300,3.394568359375,-0.45428022742271423,-0.3898981511592865,-0.14184054732322693
1620148743427572200,3.404572265625,-0.5102670788764954,-0.4466157555580139,-0.15693801641464233
1620148743437576000,3.414575927734375,-0.5474008321762085,-0.4533245861530304,-0.1828027069568634
1620148743447580200,3.424580078125,-0.592793345451355,-0.42684265971183777,-0.22436240315437317
1620148743457584000,3.434584228515625,-0.6269165277481079,-0.45801010727882385,-0.2571384012699127
1620148743467589000,3.444589111328125,-0.6745340824127197,-0.5319091081619263,-0.31011852622032166
1620148743477593000,3.454593017578125,-0.7364501953125,-0.6246907711029053,-0.3609152138233185
1620148743487597300,3.464597412109375,-0.7436484694480896,-0.7704975008964539,-0.37999358773231506
1620148743497601300,3.474601318359375,-0.6661837697029114,-0.9653958678245544,-0.3835834264755249
1620148743507605000,3.48460498046875,-0.4955318570137024,-1.1584051847457886,-0.37034645676612854
1620148743517609200,3.494609130859375,-0.17784489691257477,-1.3725281953811646,-0.30407899618148804
1620148743527614200,3.5046142578125,0.30358004570007324,-1.6394059658050537,-0.09568531066179276
1620148743537618200,3.5146181640625,0.8795541524887085,-1.921109676361084,0.2615774869918823
1620148743547622100,3.5246220703125,1.3789637088775635,-2.399214267730713,0.4768035113811493
1620148743557626400,3.53462646484375,1.6821235418319702,-2.6364221572875977,0.4736168086528778
1620148743567630000,3.544630126953125,1.7747328281402588,-2.5209550857543945,0.27315667271614075
1620148743577634000,3.554634033203125,1.7216582298278809,-2.2845911979675293,-0.13676708936691284
1620148743587639000,3.56463916015625,1.5314669609069824,-1.916184425354004,-0.6354243159294128
1620148743597643300,3.574643310546875,1.2562345266342163,-1.566672682762146,-1.227023959159851
1620148743607647200,3.584647216796875,0.9216486215591431,-1.2585564851760864,-1.8651543855667114
1620148743617651200,3.594651123046875,0.6045215129852295,-1.0477632284164429,-2.4945809841156006
1620148743627655200,3.6046552734375,0.38292863965034485,-0.9454259276390076,-3.065160036087036
1620148743637659100,3.6146591796875,0.2779976725578308,-0.9909054636955261,-3.5058164596557617
1620148743647664000,3.6246640625,0.30163827538490295,-1.1840499639511108,-3.798914670944214
1620148743657668000,3.634668212890625,0.41690579056739807,-1.4230918884277344,-3.9246861934661865
1620148743667672000,3.644672119140625,0.5468965768814087,-1.533107876777649,-3.860149383544922
1620148743677676300,3.65467626953125,0.6638667583465576,-1.4271152019500732,-3.6422927379608154
1620148743687680300,3.66468017578125,0.7450313568115234,-1.1221275329589844,-3.3387835025787354
1620148743697684000,3.67468408203125,0.7813614010810852,-0.696422815322876,-2.9881794452667236
1620148743707689000,3.68468896484375,0.7660631537437439,-0.19461669027805328,-2.6280405521392822
1620148743717693200,3.694693115234375,0.6856184601783752,0.3517085015773773,-2.284581184387207
1620148743727697200,3.704697265625,0.5487703084945679,0.9104516506195068,-1.9743702411651611
1620148743737701000,3.714701171875,0.3844948410987854,1.4679536819458008,-1.7332711219787598
1620148743747705300,3.724705322265625,0.24417313933372498,1.9984291791915894,-1.6090368032455444
1620148743757709300,3.734709228515625,0.1586947739124298,2.469050645828247,-1.6188397407531738
1620148743767714300,3.74471435546875,0.11455447971820831,2.8849222660064697,-1.7388417720794678
1620148743777718000,3.754718017578125,0.08832772076129913,3.221792221069336,-1.9259144067764282
1620148743787722000,3.764721923828125,0.040672048926353455,3.4528682231903076,-2.136052131652832
1620148743797726200,3.774726318359375,-0.04753809794783592,3.5012974739074707,-2.341721773147583
1620148743807730200,3.784730224609375,-0.1722549945116043,3.3219783306121826,-2.512464761734009
1620148743817734100,3.794734130859375,-0.2957393527030945,2.887181043624878,-2.630680561065674
1620148743827739100,3.8047392578125,-0.38245904445648193,2.2703452110290527,-2.6876282691955566
1620148743837743400,3.814743408203125,-0.4033520817756653,1.6734139919281006,-2.689030408859253
1620148743847747000,3.8247470703125,-0.36332476139068604,1.220366358757019,-2.6432552337646484
1620148743857751000,3.8347509765625,-0.26075053215026855,0.959088146686554,-2.5587260723114014
1620148743867755300,3.84475537109375,-0.136300191283226,0.8770574331283569,-2.4381189346313477
1620148743877759200,3.85475927734375,-0.008790645748376846,0.877642810344696,-2.285247325897217
1620148743887764200,3.86476416015625,0.10493431985378265,0.8555031418800354,-2.0821166038513184
1620148743897768200,3.874768310546875,0.15479664504528046,0.7311408519744873,-1.8252357244491577
1620148743907772200,3.884772216796875,0.13163219392299652,0.4425276517868042,-1.5315048694610596
1620148743917776100,3.894776123046875,0.04214280843734741,-0.033232711255550385,-1.2195955514907837
1620148743927780000,3.904780029296875,-0.07124579697847366,-0.619040310382843,-0.9078637361526489
1620148743937784300,3.914784423828125,-0.16705279052257538,-1.1231193542480469,-0.6548560857772827
1620148743947789300,3.924789306640625,-0.16196802258491516,-1.3935375213623047,-0.4968259334564209
1620148743957793300,3.934793212890625,-0.0359027199447155,-1.408074140548706,-0.4293501675128937
1620148743967797200,3.94479736328125,0.18110468983650208,-1.1832140684127808,-0.42574772238731384
1620148743977801000,3.954801025390625,0.41175761818885803,-0.8057387471199036,-0.4644724726676941
1620148743987805200,3.96480517578125,0.5863030552864075,-0.40356919169425964,-0.5360758304595947
1620148743997809200,3.97480908203125,0.6794667840003967,-0.06347890198230743,-0.6268603801727295
1620148744007813000,3.984813232421875,0.684448778629303,0.17625246942043304,-0.738892138004303
1620148744017818000,3.994818115234375,0.605774998664856,0.3040388226509094,-0.8626593351364136
1620148744027822300,4.004822265625,0.4688717722892761,0.34739935398101807,-0.9925947189331055
1620148744037826000,4.014825927734375,0.2895294427871704,0.3775826394557953,-1.1300151348114014
1620148744047830000,4.024830078125,0.0914083868265152,0.48856881260871887,-1.2718809843063354
1620148744057834200,4.034834228515625,-0.10632523894309998,0.7232583165168762,-1.4198857545852661
1620148744067838200,4.044838134765625,-0.31402915716171265,1.0720813274383545,-1.5718963146209717
1620148744077843200,4.05484326171875,-0.5312716960906982,1.4498412609100342,-1.7109333276748657
1620148744087847200,4.06484716796875,-0.7630399465560913,1.7377078533172607,-1.8217264413833618
1620148744097851400,4.074851318359375,-0.9866473078727722,1.8284345865249634,-1.8685660362243652
1620148744107855000,4.084855224609375,-1.1726176738739014,1.6476598978042603,-1.8167438507080078
1620148744117859000,4.094859130859375,-1.2761354446411133,1.230345368385315,-1.669784665107727
1620148744127863300,4.10486328125,-1.2834372520446777,0.6609959006309509,-1.4552292823791504
1620148744137868300,4.114868408203125,-1.1893830299377441,0.06933975219726562,-1.2064560651779175
1620148744147872500,4.12487255859375,-1.0146316289901733,-0.46997565031051636,-0.9604055881500244
1620148744157876200,4.134876220703125,-0.7909179329872131,-0.9108532667160034,-0.7274494767189026
1620148744167880200,4.144880126953125,-0.5469455122947693,-1.2141026258468628,-0.531441330909729
1620148744177884400,4.154884521484375,-0.29308658838272095,-1.336012601852417,-0.3967016637325287
1620148744187889400,4.164889404296875,-0.05905653163790703,-1.2931053638458252,-0.3310542106628418
1620148744197893400,4.174893310546875,0.12368904054164886,-1.0857751369476318,-0.3342263400554657
1620148744207897300,4.1848974609375,0.23576152324676514,-0.662423312664032,-0.4406214952468872
1620148744217901300,4.1949013671875,0.27570924162864685,-0.06012473627924919,-0.6528379321098328
1620148744227905300,4.2049052734375,0.25669214129447937,0.6499125957489014,-0.9428380727767944
1620148744237909200,4.2149091796875,0.17151890695095062,1.3882122039794922,-1.2681643962860107
1620148744247914200,4.224914306640625,0.03941520303487778,2.060176372528076,-1.5901850461959839
1620148744257918500,4.23491845703125,-0.10672464966773987,2.514892101287842,-1.8078540563583374
1620148744267922400,4.24492236328125,-0.26753243803977966,2.695564031600952,-1.8862543106079102
1620148744277926400,4.254926513671875,-0.43608585000038147,2.6037909984588623,-1.8551843166351318
1620148744287930400,4.264930419921875,-0.5858021378517151,2.2446961402893066,-1.7219127416610718
1620148744297934300,4.274934326171875,-0.7085964679718018,1.6550912857055664,-1.4883019924163818
1620148744307939300,4.284939208984375,-0.7690507173538208,0.9238767623901367,-1.1825026273727417
1620148744317943300,4.294943359375,-0.76426762342453,0.17446310818195343,-0.8549985289573669
1620148744327947300,4.304947265625,-0.7065862417221069,-0.4060133397579193,-0.594456136226654
1620148744337951500,4.314951416015625,-0.634233832359314,-0.6652487516403198,-0.6020909547805786
1620148744347955200,4.324955078125,-0.5526284575462341,-0.4773121178150177,-0.9669629335403442
1620148744357959200,4.334959228515625,-0.44151926040649414,0.001752366777509451,-1.3757867813110352
1620148744367964200,4.344964111328125,-0.24285542964935303,0.44908300042152405,-1.4477014541625977
1620148744377968400,4.354968505859375,0.03049754537642002,0.841767430305481,-1.3005973100662231
1620148744387972400,4.364972412109375,0.3225794732570648,1.2434197664260864,-1.065165638923645
1620148744397976300,4.374976318359375,0.5897592306137085,1.6658868789672852,-0.808644711971283
1620148744407980500,4.38498046875,0.747974693775177,2.1460366249084473,-0.5853344202041626
1620148744417984300,4.394984375,0.6781676411628723,2.687706708908081,-0.44485288858413696
1620148744427989200,4.4049892578125,0.34145569801330566,3.3428754806518555,-0.4431513845920563
1620148744437993200,4.4149931640625,-0.15884307026863098,4.054052829742432,-0.5670823454856873
1620148744447997400,4.42499755859375,-0.6123847365379333,4.476398944854736,-0.654531717300415
1620148744458001400,4.43500146484375,-0.9218176603317261,4.41126012802124,-0.6090140342712402
1620148744468005400,4.44500537109375,-1.0873063802719116,3.9255893230438232,-0.4797596335411072
1620148744478009300,4.45500927734375,-1.1148959398269653,3.1231236457824707,-0.33605948090553284
1620148744488014300,4.465014404296875,-1.0417085886001587,2.149702787399292,-0.24603421986103058
1620148744498018300,4.475018310546875,-0.9318606853485107,1.1192302703857422,-0.2322647124528885
1620148744508022300,4.485022216796875,-0.8389038443565369,0.25043633580207825,-0.3527431786060333
1620148744518026200,4.495026123046875,-0.7591277956962585,-0.30284959077835083,-0.6057718396186829
1620148744528030500,4.505030517578125,-0.6673731207847595,-0.5727482438087463,-0.9129621386528015
1620148744538034400,4.515034423828125,-0.5298778414726257,-0.6639165282249451,-1.187191367149353
1620148744548039400,4.525039306640625,-0.32154807448387146,-0.6749699711799622,-1.3643419742584229
1620148744558043100,4.535043212890625,-0.03938157856464386,-0.6674196124076843,-1.4268407821655273
1620148744568047400,4.54504736328125,0.26442384719848633,-0.6710433959960938,-1.376665472984314
1620148744578051300,4.55505126953125,0.5654403567314148,-0.6850091814994812,-1.2455161809921265
1620148744588055300,4.56505517578125,0.8346095085144043,-0.7478762865066528,-1.0547611713409424
1620148744598059500,4.5750595703125,1.0399913787841797,-0.8797686100006104,-0.8253835439682007
1620148744608064500,4.585064453125,1.1710327863693237,-1.076758861541748,-0.5711349844932556
1620148744618068200,4.595068115234375,1.2128300666809082,-1.321469783782959,-0.2962692975997925
1620148744628072200,4.605072265625,1.1605520248413086,-1.6000595092773438,-0.01694151572883129
1620148744638076400,4.615076416015625,1.0146936178207397,-1.854750633239746,0.24586188793182373
1620148744648080400,4.625080322265625,0.7885369658470154,-1.965482473373413,0.45014792680740356
1620148744658084400,4.63508447265625,0.48625972867012024,-1.7816969156265259,0.5439885854721069
1620148744668089300,4.64508935546875,0.11167307198047638,-1.1006866693496704,0.4419429302215576
1620148744678093300,4.65509326171875,-0.3105095624923706,0.028316423296928406,0.1221398338675499
1620148744688097300,4.66509716796875,-0.680249035358429,1.0279704332351685,-0.16692659258842468
1620148744698101200,4.675101318359375,-0.9222166538238525,1.586105465888977,-0.2924107611179352
1620148744708105200,4.685105224609375,-1.0391077995300293,1.848873496055603,-0.3329600393772125
1620148744718110200,4.695110107421875,-1.0298351049423218,2.0236334800720215,-0.3942781984806061
1620148744728114400,4.705114501953125,-0.8872811794281006,2.2449893951416016,-0.5522540211677551
1620148744738118400,4.715118408203125,-0.6516678929328918,2.4756553173065186,-0.7899320721626282
1620148744748122000,4.7251220703125,-0.370924174785614,2.6505126953125,-1.038893461227417
1620148744758126300,4.735126220703125,-0.09674882888793945,2.7221288681030273,-1.2302825450897217
1620148744768130300,4.74513037109375,0.10947971045970917,2.6470696926116943,-1.3133262395858765
1620148744778135300,4.75513525390625,0.21254859864711761,2.330951452255249,-1.2222704887390137
1620148744788139300,4.76513916015625,0.22947511076927185,1.5639809370040894,-0.8933141827583313
1620148744798143500,4.7751435546875,0.16272908449172974,0.6413723230361938,-0.4720480144023895
1620148744808147500,4.7851474609375,-0.011930598877370358,-0.15873314440250397,-0.10521435737609863
1620148744818151200,4.795151123046875,-0.22132991254329681,-0.7416901588439941,0.15315991640090942
1620148744828155400,4.8051552734375,-0.4129752516746521,-1.0591732263565063,0.3002375066280365
1620148744838160400,4.815160400390625,-0.5635324716567993,-1.120908260345459,0.3510552644729614
1620148744848164400,4.825164306640625,-0.6676594018936157,-0.9486362934112549,0.3144487738609314
1620148744858168300,4.835168212890625,-0.7184983491897583,-0.5871514081954956,0.2337729036808014
1620148744868172300,4.84517236328125,-0.7423408031463623,-0.12348144501447678,0.13063187897205353
1620148744878176300,4.85517626953125,-0.7635084986686707,0.33347681164741516,0.04977492243051529
1620148744888180200,4.86518017578125,-0.8170774579048157,0.669978141784668,0.026579054072499275
1620148744898185200,4.875185302734375,-0.9051166772842407,0.8437896370887756,0.08020826429128647
1620148744908189200,4.885189208984375,-1.018294334411621,0.8849082589149475,0.18805323541164398
1620148744918193400,4.895193359375,-1.1368952989578247,0.8258716464042664,0.32907751202583313
1620148744928197400,4.905197265625,-1.2509419918060303,0.6998263597488403,0.47791120409965515
1620148744938201300,4.915201416015625,-1.3413822650909424,0.5623401999473572,0.6166133284568787
1620148744948205300,4.925205322265625,-1.389841079711914,0.45329198241233826,0.7154397964477539
1620148744958210300,4.935210205078125,-1.3749706745147705,0.4272227883338928,0.7422077059745789
1620148744968214300,4.94521435546875,-1.2978907823562622,0.564852237701416,0.631544828414917
1620148744978218200,4.95521826171875,-1.1828137636184692,0.9668501019477844,0.30901220440864563
1620148744988222500,4.965222412109375,-1.0836936235427856,1.4766871929168701,-0.14861126244068146
1620148744998226400,4.975226318359375,-1.0197464227676392,1.763867735862732,-0.5129895210266113
1620148745008230400,4.98523046875,-0.9885700941085815,1.7831616401672363,-0.7429901957511902
1620148745018235400,4.9952353515625,-0.9853239059448242,1.6630138158798218,-0.8944323658943176
1620148745028239400,5.0052392578125,-0.9768950343132019,1.5029672384262085,-1.0008677244186401
1620148745038243300,5.015243408203125,-0.9458516240119934,1.3568893671035767,-1.0888062715530396
1620148745048247300,5.025247314453125,-0.8924272656440735,1.228947639465332,-1.151245355606079
1620148745058251300,5.035251220703125,-0.8262495994567871,1.1196208000183105,-1.1944093704223633
1620148745068255500,5.04525537109375,-0.7409189939498901,1.0102087259292603,-1.2253470420837402
1620148745078260500,5.055260498046875,-0.6298239231109619,0.8067570924758911,-1.212312936782837
1620148745088264200,5.06526416015625,-0.46790769696235657,0.42136943340301514,-1.0805083513259888
1620148745098268200,5.07526806640625,-0.2620706558227539,-0.10099433362483978,-0.8447412848472595
1620148745108272400,5.0852724609375,-0.018503788858652115,-0.6293697357177734,-0.5715004205703735
1620148745118276400,5.0952763671875,0.229885533452034,-1.010102391242981,-0.3347724974155426
1620148745128279600,5.105279541015625,0.4673233926296234,-1.1515905857086182,-0.1718943566083908
1620148745138284500,5.115284423828125,0.668005645275116,-1.0809953212738037,-0.08065814524888992
1620148745148288500,5.12528857421875,0.8108986020088196,-0.8528367280960083,-0.05510617792606354
1620148745158292500,5.13529248046875,0.8870044946670532,-0.549983024597168,-0.04893585667014122
1620148745168296400,5.14529638671875,0.9048658013343811,-0.2561655342578888,-0.031046871095895767
1620148745178300700,5.15530078125,0.8738090991973877,-0.03154928609728813,0.011104894801974297
1620148745188305700,5.1653056640625,0.8126932978630066,0.12370262295007706,0.06478569656610489
1620148745198309400,5.175309326171875,0.7377459406852722,0.23968946933746338,0.14322349429130554
1620148745208313300,5.185313232421875,0.6577951908111572,0.29497990012168884,0.25690531730651855
1620148745218317600,5.195317626953125,0.5874830484390259,0.2548430263996124,0.40388211607933044
1620148745228321500,5.205321533203125,0.5444338321685791,0.08079346269369125,0.554140031337738
1620148745238325500,5.215325439453125,0.5314285159111023,-0.1808387041091919,0.6965105533599854
1620148745248330500,5.22533056640625,0.5539458394050598,-0.4457912743091583,0.7980188131332397
1620148745258334700,5.235334716796875,0.6023517847061157,-0.629868745803833,0.8750059604644775
1620148745268338400,5.24533837890625,0.669649064540863,-0.652345597743988,0.9501920938491821
1620148745278342400,5.25534228515625,0.7235559225082397,-0.3771711587905884,1.0283386707305908
1620148745288346600,5.2653466796875,0.7278560996055603,0.32119545340538025,1.0681660175323486
1620148745298350600,5.2753505859375,0.619014322757721,1.0754315853118896,1.1227692365646362
1620148745308355600,5.28535546875,0.4292106032371521,1.2722370624542236,1.2502254247665405
1620148745318359600,5.295359619140625,0.21177811920642853,1.0447386503219604,1.3401299715042114
1620148745328363800,5.30536376953125,-0.037406664341688156,0.8362970948219299,1.218514084815979
1620148745338367500,5.315367431640625,-0.20894795656204224,0.7583962082862854,0.6036322712898254
1620148745348371500,5.325371337890625,0.007839486934244633,0.18414434790611267,-0.36967718601226807
1620148745358375400,5.33537548828125,0.3557435870170593,-0.782135546207428,-1.0545741319656372
1620148745368380700,5.345380615234375,0.5352537035942078,-1.5647528171539307,-1.248341679573059
1620148745378384600,5.355384521484375,0.6323738098144531,-2.0354411602020264,-1.1489152908325195
1620148745388388600,5.365388671875,0.7255545854568481,-2.26507830619812,-0.951825737953186
1620148745398392300,5.375392333984375,0.817215621471405,-2.3505544662475586,-0.7402885556221008
1620148745408396500,5.385396484375,0.8956717848777771,-2.3418350219726562,-0.557145357131958
1620148745418400500,5.395400390625,0.9501038789749146,-2.2536990642547607,-0.38537392020225525
1620148745428405500,5.405405517578125,1.0000853538513184,-2.098985433578491,-0.21483762562274933
1620148745438409500,5.415409423828125,1.0222783088684082,-1.8709065914154053,-0.052706632763147354
1620148745448413700,5.42541357421875,1.0140800476074219,-1.6254401206970215,0.08985265344381332
1620148745458417700,5.435417724609375,0.9736826419830322,-1.4031442403793335,0.2133941650390625
1620148745468421400,5.44542138671875,0.9210018515586853,-1.2463785409927368,0.31946948170661926
1620148745478425600,5.455425537109375,0.8628437519073486,-1.1293946504592896,0.4025980532169342
1620148745488430600,5.4654306640625,0.7833007574081421,-1.067344069480896,0.45372703671455383
1620148745498434600,5.4754345703125,0.6758941411972046,-1.0310763120651245,0.4705054759979248
1620148745508438500,5.4854384765625,0.554077684879303,-0.9933228492736816,0.4836324453353882
1620148745518442800,5.49544287109375,0.4274260103702545,-0.9345965385437012,0.4638715386390686
1620148745528446500,5.505446533203125,0.3134554922580719,-0.8311034440994263,0.44020241498947144
1620148745538451500,5.515451416015625,0.21070460975170135,-0.6729109287261963,0.4107864201068878
1620148745548455400,5.525455322265625,0.12845979630947113,-0.4724750816822052,0.383423775434494
1620148745558459600,5.535459716796875,0.06571226567029953,-0.25260210037231445,0.34983253479003906
1620148745568463600,5.545463623046875,0.03276960179209709,-0.02779003605246544,0.33206501603126526
1620148745578467600,5.555467529296875,0.035387709736824036,0.19656644761562347,0.315340131521225
1620148745588471600,5.565471435546875,0.07352258265018463,0.38293522596359253,0.3102726638317108
1620148745598476500,5.5754765625,0.1433916985988617,0.4999903440475464,0.3142756521701813
1620148745608480500,5.58548046875,0.24213053286075592,0.5181800127029419,0.312984824180603
1620148745618484500,5.595484375,0.36714935302734375,0.4264025390148163,0.31318461894989014
1620148745628488400,5.605488525390625,0.4977169632911682,0.27006274461746216,0.3305596113204956
1620148745638492700,5.61549267578125,0.6219276189804077,0.07142529636621475,0.3566785156726837
1620148745648496600,5.62549658203125,0.7346807718276978,-0.12523716688156128,0.4096488058567047
1620148745658501600,5.635501708984375,0.8240131139755249,-0.2709878981113434,0.48289060592651367
1620148745668505300,5.64550537109375,0.8901796340942383,-0.3468645513057709,0.587394118309021
1620148745678509600,5.655509521484375,0.936331033706665,-0.3658480942249298,0.7169840335845947
1620148745688513500,5.665513427734375,0.9697750210762024,-0.33603641390800476,0.8588857650756836
1620148745698517500,5.675517578125,0.995807409286499,-0.2812199592590332,0.9927717447280884
1620148745708521700,5.685521728515625,1.0176059007644653,-0.23710283637046814,1.1153125762939453
1620148745718526700,5.695526611328125,1.0357391834259033,-0.20430888235569,1.2188491821289062
1620148745728530700,5.70553076171875,1.0498199462890625,-0.20606736838817596,1.2886672019958496
1620148745738534400,5.715534423828125,1.0669153928756714,-0.2525404095649719,1.3156028985977173
1620148745748538400,5.725538330078125,1.0794132947921753,-0.35465532541275024,1.2957963943481445
1620148745758542600,5.73554248046875,1.0873745679855347,-0.4942108690738678,1.225950837135315
1620148745768546600,5.745546630859375,1.0842297077178955,-0.6759843826293945,1.1031725406646729
1620148745778551600,5.755551513671875,1.075529932975769,-0.9111061096191406,0.9286230802536011
1620148745788555500,5.765555419921875,1.0310860872268677,-1.598690390586853,0.5264945030212402
1620148745798559500,5.7755595703125,0.9301040768623352,-3.1476798057556152,-0.3085968792438507
1620148745808563500,5.7855634765625,0.910910964012146,-3.8433773517608643,-0.7250998616218567
1620148745818567400,5.7955673828125,1.0124684572219849,-3.767925262451172,-0.7326059341430664
1620148745828571600,5.805571533203125,1.1384018659591675,-3.4940288066864014,-0.6153842806816101
1620148745838576600,5.81557666015625,1.2329704761505127,-3.165994167327881,-0.4504450559616089
1620148745848580600,5.82558056640625,1.2627099752426147,-2.814605236053467,-0.2572399079799652
1620148745858584600,5.83558447265625,1.2342513799667358,-2.4632532596588135,-0.06492327898740768
1620148745868588500,5.845588623046875,1.1492217779159546,-2.1280829906463623,0.10297064483165741
1620148745878592500,5.855592529296875,1.026057481765747,-1.807249903678894,0.23874250054359436
1620148745888597500,5.865597412109375,0.8746839761734009,-1.5017869472503662,0.3252376914024353
1620148745898601500,5.8756015625,0.7200605869293213,-1.2202547788619995,0.35090187191963196
1620148745908605700,5.885605712890625,0.5712002515792847,-0.9327806234359741,0.3295116126537323
1620148745918609700,5.895609619140625,0.4210868775844574,-0.6366269588470459,0.27150464057922363
1620148745928613400,5.90561328125,0.2703793942928314,-0.3373265564441681,0.18053343892097473
1620148745938617300,5.915617431640625,0.12717242538928986,-0.03315017744898796,0.07220889627933502
1620148745948621600,5.92562158203125,-0.008510301820933819,0.27766627073287964,-0.06619691848754883
1620148745958626600,5.93562646484375,-0.1418883204460144,0.5724065899848938,-0.2354172319173813
1620148745968630500,5.945630615234375,-0.275477796792984,0.8498637676239014,-0.43169966340065
1620148745978634500,5.955634521484375,-0.4148023724555969,1.0937349796295166,-0.6561780571937561
1620148745988638700,5.965638671875,-0.5764725208282471,1.2633641958236694,-0.9035431146621704
1620148745998642400,5.975642333984375,-0.7579898834228516,1.2748268842697144,-1.1575887203216553
1620148746008647400,5.9856474609375,-0.9433930516242981,1.1406238079071045,-1.3773218393325806
1620148746018651400,5.9956513671875,-1.1040191650390625,0.9341217875480652,-1.536656141281128
1620148746028655600,6.005655517578125,-1.2122551202774048,0.6811063289642334,-1.6469600200653076
1620148746038659600,6.01565966796875,-1.273285984992981,0.37173381447792053,-1.7103290557861328
1620148746048663600,6.02566357421875,-1.286054015159607,0.008352125063538551,-1.731070876121521
1620148746058667500,6.03566748046875,-1.2531324625015259,-0.43369704484939575,-1.7081830501556396
1620148746068672800,6.0456728515625,-1.1892554759979248,-0.9861303567886353,-1.6504230499267578
1620148746078676500,6.055676513671875,-1.102189302444458,-1.6664639711380005,-1.5508005619049072
1620148746088680400,6.065680419921875,-1.0077414512634277,-2.502790927886963,-1.3932764530181885
1620148746098684700,6.0756845703125,-0.9046916365623474,-3.499171018600464,-1.183645486831665
1620148746108688600,6.085688720703125,-0.7915805578231812,-4.569168567657471,-0.9196299314498901
1620148746118692600,6.095692626953125,-0.6781396865844727,-5.598004341125488,-0.6099589467048645
1620148746128698600,6.10569873046875,-0.5753706693649292,-6.49093770980835,-0.2672080099582672
1620148746138702600,6.11570263671875,-0.47277626395225525,-7.161077976226807,0.08665905147790909
1620148746148706600,6.12570654296875,-0.3602483868598938,-7.510343074798584,0.3966800570487976
1620148746158710800,6.135710693359375,-0.24855317175388336,-7.428323745727539,0.6316467523574829
1620148746168714800,6.14571484375,-0.13077673316001892,-6.971996307373047,0.7777642607688904
1620148746178718700,6.15571875,-0.013872062787413597,-6.271342754364014,0.831609845161438
1620148746188723700,6.1657236328125,0.07533185184001923,-5.347244739532471,0.7890416383743286
1620148746198727700,6.175727783203125,0.1255050003528595,-4.385612487792969,0.6587240695953369
1620148746208731600,6.185731689453125,0.11624705791473389,-3.5035293102264404,0.46623554825782776
1620148746218735600,6.195735595703125,0.0255344919860363,-2.7570154666900635,0.24464552104473114
1620148746228739800,6.20573974609375,-0.1343640834093094,-2.204765558242798,0.026177886873483658
1620148746238743800,6.215743896484375,-0.3549553155899048,-1.8329246044158936,-0.1605021208524704
1620148746248748800,6.225748779296875,-0.6004287600517273,-1.610089898109436,-0.29720643162727356
1620148746258752800,6.235752685546875,-0.8453909754753113,-1.5359313488006592,-0.37849798798561096
1620148746268756700,6.2457568359375,-1.699355125427246,-1.6245884895324707,-0.4886505901813507
1620148746278760700,6.2557607421875,-2.7513179779052734,-1.7847915887832642,-0.6584433317184448
1620148746288764700,6.2657646484375,-2.5825982093811035,-1.696208119392395,-0.5113564133644104
1620148746298768600,6.2757685546875,-2.1877777576446533,-1.6299011707305908,-0.2804190218448639
1620148746308773600,6.285773681640625,-1.6959677934646606,-1.6081346273422241,-0.012706875801086426
1620148746318777900,6.29577783203125,-1.1331586837768555,-1.5676993131637573,0.3208223879337311
1620148746328781600,6.305781494140625,-0.5905385613441467,-1.516910433769226,0.6834732294082642
1620148746338785500,6.31578564453125,-0.12873052060604095,-1.4362162351608276,1.028370976448059
1620148746348789800,6.325789794921875,0.21959470212459564,-1.342131495475769,1.331443190574646
1620148746358793700,6.335793701171875,0.4487142860889435,-1.2269110679626465,1.5671825408935547
1620148746368798700,6.345798828125,0.5454815626144409,-1.0965235233306885,1.731536626815796
1620148746378802700,6.355802734375,0.5418809652328491,-0.9345070123672485,1.830751657485962
1620148746388807000,6.365806884765625,0.46483439207077026,-0.7626639008522034,1.8806822299957275
1620148746398810600,6.375810546875,0.3617710769176483,-0.6077779531478882,1.8986598253250122
1620148746408814600,6.385814697265625,0.24916274845600128,-0.4909290671348572,1.8763408660888672
1620148746418818800,6.39581884765625,0.1576363742351532,-0.433738648891449,1.806067943572998
1620148746428823800,6.40582373046875,0.10301653295755386,-0.49033135175704956,1.6717274188995361
1620148746438827800,6.415827880859375,0.1702335774898529,-2.6989519596099854,0.15468131005764008
1620148746448831700,6.425831787109375,0.3441883623600006,-5.0847697257995605,-1.5347625017166138
1620148746458835700,6.435835693359375,0.5326030850410461,-5.846480369567871,-1.925511121749878
1620148746468839700,6.445839599609375,0.715444803237915,-6.0372443199157715,-1.7871285676956177
1620148746478843600,6.45584375,0.8786693811416626,-6.0203776359558105,-1.4157495498657227
1620148746488848600,6.4658486328125,0.9626047611236572,-5.714107036590576,-0.9663484692573547
1620148746498852600,6.4758525390625,0.9492921829223633,-5.061245918273926,-0.5291372537612915
1620148746508856800,6.48585693359375,0.8702085018157959,-4.274228572845459,-0.13572870194911957
1620148746518860800,6.49586083984375,0.7684786915779114,-3.4308130741119385,0.21308648586273193
1620148746528864500,6.505864501953125,0.6586393117904663,-2.593963146209717,0.5122028589248657
1620148746538869500,6.515869384765625,0.5567282438278198,-1.811347246170044,0.7490726113319397
1620148746548873700,6.525873779296875,0.47568821907043457,-1.1126469373703003,0.9269174337387085
1620148746558877700,6.535877685546875,0.4187089502811432,-0.5149069428443909,1.0496668815612793
1620148746568881700,6.545881591796875,0.3769330084323883,0.03055960312485695,1.1442216634750366
1620148746578886000,6.555885986328125,0.33123207092285156,0.5504605174064636,1.2272344827651978
1620148746588889600,6.5658896484375,0.29319122433662415,1.0483202934265137,1.286457896232605
1620148746598894600,6.57589453125,0.2774040400981903,1.5247880220413208,1.3347101211547852
1620148746608898600,6.585898681640625,0.2929838001728058,1.966194748878479,1.3737802505493164
1620148746618902800,6.59590283203125,0.3549177646636963,2.3516809940338135,1.4130802154541016
1620148746628906800,6.60590673828125,0.444455087184906,2.6113884449005127,1.4394094944000244
1620148746638910700,6.61591064453125,0.5186845064163208,2.648386240005493,1.4404205083847046
1620148746648914700,6.625914794921875,0.5709056258201599,2.413578510284424,1.404890775680542
1620148746658920000,6.635919921875,0.6249132752418518,1.9636878967285156,1.334619164466858
1620148746668923600,6.645923583984375,0.6712413430213928,1.1662805080413818,1.1266417503356934
1620148746678927600,6.655927734375,0.661154568195343,-0.4304410219192505,0.561327338218689
1620148746688931600,6.665931640625,0.6385467648506165,-1.7784332036972046,0.04610366001725197
1620148746698935800,6.675935791015625,0.6868908405303955,-2.3253650665283203,-0.14807939529418945
1620148746708939800,6.685939697265625,0.805884063243866,-2.4136130809783936,-0.14521808922290802
1620148746718943500,6.695943603515625,0.926956295967102,-2.3723089694976807,-0.0825190469622612
1620148746728948500,6.705948486328125,1.0218473672866821,-2.2773056030273438,0.0049391635693609715
1620148746738952700,6.71595263671875,1.085613489151001,-2.1444718837738037,0.09878585487604141
1620148746748956700,6.725956787109375,1.1174461841583252,-1.9822319746017456,0.19441942870616913
1620148746758960600,6.735960693359375,1.1074475049972534,-1.796951413154602,0.2787507176399231
1620148746768964900,6.74596484375,1.048763394355774,-1.620397686958313,0.33659642934799194
1620148746778969900,6.755969970703125,0.9715191125869751,-1.478163480758667,0.34993410110473633
1620148746788973800,6.765973876953125,0.8829972147941589,-1.3866289854049683,0.3382265865802765
1620148746798977500,6.7759775390625,0.7956178784370422,-1.3522690534591675,0.29513829946517944
1620148746808981800,6.785981689453125,0.713155210018158,-1.38384211063385,0.24336084723472595
1620148746818985700,6.79598583984375,0.6657302975654602,-1.46452796459198,0.19287045300006866
1620148746828989700,6.80598974609375,0.6576662063598633,-1.595131278038025,0.1534210443496704
1620148746838994700,6.81599462890625,0.691625714302063,-1.760749340057373,0.13587325811386108
1620148746848999000,6.8259990234375,0.7532241344451904,-1.9441673755645752,0.13305296003818512
1620148746859002600,6.836002685546875,0.8314999938011169,-2.1542186737060547,0.13498002290725708
1620148746869006600,6.846006591796875,0.9067683815956116,-2.3506462574005127,0.14530830085277557
1620148746879010600,6.856010498046875,0.9665727615356445,-2.524557113647461,0.1651678830385208
1620148746889014800,6.866014892578125,1.0145847797393799,-2.7046191692352295,0.1947319060564041
1620148746899019800,6.876019775390625,1.0354390144348145,-2.907315254211426,0.24590153992176056
1620148746909023700,6.886023681640625,1.031762719154358,-3.1421139240264893,0.31380441784858704
1620148746919027700,6.89602783203125,1.0040583610534668,-3.403536558151245,0.3972058892250061
1620148746929031700,6.90603173828125,0.9389268159866333,-3.6839725971221924,0.5027653574943542
1620148746939035600,6.91603564453125,0.8442279696464539,-3.9614996910095215,0.5987994074821472
1620148746949039600,6.92603955078125,0.7156795859336853,-4.174262046813965,0.6882885098457336
1620148746959044600,6.936044677734375,0.5587033629417419,-4.265791416168213,0.7187818884849548
1620148746969048800,6.946048828125,0.382474809885025,-4.068167686462402,0.6780629754066467
1620148746979052800,6.956052734375,0.2358310967683792,-3.5203566551208496,0.5782665610313416
1620148746989056500,6.966056396484375,0.12779198586940765,-2.6992437839508057,0.4543989300727844
1620148746999060700,6.976060791015625,0.05393080413341522,-1.677808403968811,0.3137233555316925
1620148747009064700,6.986064697265625,0.021774467080831528,-0.5625118017196655,0.1812625229358673
1620148747019069700,6.996069580078125,0.02151413820683956,0.4355134963989258,0.08903804421424866
1620148747029073700,7.00607373046875,0.009135765954852104,1.1657133102416992,0.09265700727701187
1620148747039077600,7.01607763671875,-0.03317302465438843,1.5649747848510742,0.2102011740207672
1620148747049081900,7.026081787109375,-0.10286262631416321,1.6747609376907349,0.41453009843826294
1620148747059085600,7.03608544921875,-0.17908115684986115,1.5626270771026611,0.6946929693222046
1620148747069089500,7.046089599609375,-0.25553596019744873,1.2661714553833008,1.0177453756332397
1620148747079094500,7.056094482421875,-0.33124086260795593,0.8097055554389954,1.3492933511734009
1620148747089098800,7.0660986328125,-0.4062943458557129,0.247451514005661,1.6486552953720093
1620148747099102700,7.076102783203125,-0.4646700918674469,-0.35182052850723267,1.900937557220459
1620148747109106700,7.086106689453125,-0.5066399574279785,-0.8280006647109985,2.0808496475219727
1620148747119111000,7.09611083984375,-0.5497865676879883,-0.8792534470558167,2.1268084049224854
1620148747129114400,7.1061142578125,-0.6445972323417664,-0.2103099673986435,1.9645713567733765
1620148747139119400,7.116119384765625,-0.7738726735115051,0.46849045157432556,1.782790184020996
1620148747149123000,7.126123046875,-0.844265341758728,0.5383318662643433,1.740431547164917
1620148747159127300,7.136127197265625,-0.8772069811820984,0.09761899709701538,1.7928351163864136
1620148747169131300,7.14613134765625,-0.9213504791259766,-0.5859425663948059,1.8664946556091309
1620148747179135200,7.15613525390625,-0.9881897568702698,-1.2957932949066162,1.9065338373184204
1620148747189139500,7.166139404296875,-1.0459827184677124,-1.7520869970321655,1.8568813800811768
1620148747199144400,7.17614453125,-1.0367865562438965,-1.701386570930481,1.686368703842163
1620148747209148400,7.1861484375,-0.8177729249000549,-1.160495400428772,1.4258019924163818
1620148747219152100,7.196152099609375,-0.3692622780799866,-0.6392787098884583,1.2044093608856201
1620148747229156400,7.20615625,0.16371750831604004,-0.46814632415771484,1.1312464475631714
1620148747239160300,7.216160400390625,0.6309898495674133,-0.7287359237670898,1.192461371421814
1620148747249164300,7.226164306640625,0.9527348875999451,-1.3347554206848145,1.3510552644729614
1620148747259169300,7.236169189453125,1.108521580696106,-2.137171983718872,1.5837329626083374
1620148747269173500,7.246173583984375,1.1145789623260498,-2.9455599784851074,1.8455421924591064
1620148747279177200,7.25617724609375,1.0182480812072754,-3.5515198707580566,2.075514078140259
1620148747289181200,7.26618115234375,0.8551650047302246,-3.710732936859131,2.174056053161621
1620148747299185200,7.27618505859375,0.693941056728363,-3.011061191558838,1.9653735160827637
1620148747309189400,7.286189453125,0.6185315251350403,-1.387587070465088,1.3687965869903564
1620148747319194400,7.2961943359375,0.6233732104301453,-0.12264366447925568,0.8180533051490784
1620148747329198300,7.3061982421875,0.5450568795204163,0.12248380482196808,0.6431438326835632
1620148747339202300,7.316202392578125,0.4102223217487335,-0.17965617775917053,0.7204180359840393
1620148747349206300,7.326206298828125,0.2972395718097687,-0.5917550325393677,0.8887580633163452
1620148747359210200,7.336210205078125,0.2348526567220688,-0.9887605309486389,1.0763407945632935
1620148747369214200,7.346214111328125,0.20853076875209808,-1.3874677419662476,1.2868356704711914
1620148747379219200,7.35621923828125,0.19274696707725525,-1.8061999082565308,1.5260803699493408
1620148747389223400,7.366223388671875,0.1906755566596985,-2.207970142364502,1.784940481185913
1620148747399227400,7.376227294921875,0.20037752389907837,-2.547407388687134,2.0762715339660645
1620148747409231000,7.386231201171875,0.21569281816482544,-2.8049545288085938,2.3848822116851807
1620148747419235300,7.3962353515625,0.2495972067117691,-2.9802987575531006,2.7085602283477783
1620148747429239300,7.4062392578125,0.3079920709133148,-3.072885274887085,3.0346617698669434
1620148747439244300,7.416244384765625,0.40796738862991333,-3.046556234359741,3.358959197998047
1620148747449248300,7.426248291015625,0.5481122136116028,-2.8202333450317383,3.6618847846984863
1620148747459252500,7.43625244140625,0.7177197337150574,-2.360757350921631,3.944871664047241
1620148747469256400,7.44625634765625,0.9045090079307556,-1.7071638107299805,4.216769218444824
1620148747479260200,7.45626025390625,1.0601941347122192,-1.0305116176605225,4.435593605041504
1620148747489264000,7.46626416015625,1.1425124406814575,-0.5176312923431396,4.575087070465088
1620148747499269000,7.47626904296875,1.1667991876602173,-0.2238234579563141,4.548980712890625
1620148747509273300,7.4862734375,1.1922379732131958,-0.05420725792646408,4.261681079864502
1620148747519277300,7.49627734375,1.2016733884811401,-0.011732859537005424,3.5726733207702637
1620148747529281300,7.50628125,1.1159977912902832,-0.12760566174983978,2.4262897968292236
1620148747539285200,7.51628515625,0.9457008242607117,-0.31076759099960327,1.0735504627227783
1620148747549289200,7.526289306640625,0.7007158398628235,-0.5834648609161377,-0.19059905409812927
1620148747559294200,7.536294189453125,0.36555197834968567,-0.8519690036773682,-1.1007672548294067
1620148747569298200,7.546298095703125,0.011143660172820091,-1.0502196550369263,-1.4034061431884766
1620148747579302400,7.556302490234375,-0.2963806092739105,-1.181149959564209,-1.0619087219238281
1620148747589306400,7.566306396484375,-0.5360792875289917,-1.1922284364700317,-0.22137388586997986
1620148747599310300,7.576310302734375,0.11561517417430878,10.933425903320312,7.375654697418213
1620148747609314300,7.586314208984375,0.6343978643417358,11.691856384277344,9.283123970031738
1620148747619319300,7.5963193359375,0.5553664565086365,7.377885341644287,8.107701301574707
1620148747629323300,7.6063232421875,0.2241789698600769,3.160083293914795,6.60850191116333
1620148747639327200,7.6163271484375,-0.21564847230911255,-0.5691938996315002,5.004116535186768
1620148747649331500,7.62633154296875,-0.5034129619598389,-3.436830520629883,3.468449354171753
1620148747659335400,7.63633544921875,-0.6005056500434875,-5.42466926574707,2.116548776626587
1620148747669339100,7.646339111328125,-0.377802312374115,2.120741128921509,3.40614914894104
1620148747679344000,7.65634423828125,-0.36977607011795044,13.308260917663574,1.7897276878356934
1620148747689348000,7.66634814453125,-1.1092861890792847,1.584702968597412,-4.525569438934326
1620148747699352300,7.676352294921875,0.4845811724662781,-7.7728047370910645,-0.7347575426101685
1620148747709356300,7.686356201171875,1.1476092338562012,-1.807747721672058,-0.8483779430389404
1620148747719360300,7.6963603515625,2.0098989009857178,1.1236618757247925,-0.4732953906059265
1620148747729364500,7.706364501953125,2.6337368488311768,-0.8055880069732666,1.067787528038025
1620148747739369500,7.716369384765625,1.6163488626480103,2.2668442726135254,1.6372003555297852
1620148747749373200,7.726373291015625,-0.05870397016406059,-1.4597281217575073,-0.3448873460292816
1620148747759377200,7.736377197265625,0.05342310294508934,0.4432818591594696,0.29283586144447327
1620148747769381400,7.74638134765625,0.06910093128681183,-0.10979965329170227,0.08973351866006851
1620148747779385300,7.75638525390625,0.05250650271773338,-0.038474079221487045,0.09537942707538605
1620148747789389300,7.766389404296875,0.010195020586252213,-0.15575532615184784,0.004969045519828796
1620148747799394300,7.776394287109375,0.00442847702652216,-0.19162757694721222,-0.03641541302204132
1620148747809398300,7.786398193359375,0.0035487699788063765,-0.23164989054203033,-0.035787541419267654
1620148747819402200,7.79640234375,0.006334969773888588,-0.2826710045337677,-0.02115480601787567
1620148747829406200,7.80640625,0.010805097408592701,-0.3534737229347229,-0.011891724541783333
1620148747839410400,7.816410400390625,-0.016922136768698692,-0.5194509625434875,-0.0205382090061903
1620148747849414400,7.826414306640625,-0.15398536622524261,-0.4336608648300171,-0.030731216073036194
1620148747859419400,7.83641943359375,-0.38679277896881104,0.16049756109714508,-0.019290275871753693
1620148747869423400,7.84642333984375,-0.7627912163734436,0.45965513586997986,-0.013310123234987259
1620148747879427000,7.856427001953125,-0.8594552278518677,0.34162864089012146,-0.03942587971687317
1620148747889431300,7.866431396484375,-0.4827033281326294,0.3596719205379486,-0.005080447532236576
1620148747899435300,7.876435302734375,-0.09755831211805344,0.34360530972480774,0.021774068474769592
1620148747909439200,7.886439208984375,0.056834641844034195,0.36526766419410706,0.0630032941699028
1620148747919444200,7.8964443359375,0.08966156840324402,0.2819903492927551,0.07202661037445068
1620148747929448400,7.906448486328125,0.09252181649208069,0.15066517889499664,0.05609020218253136
1620148747939452200,7.9164521484375,0.055565666407346725,0.05249067023396492,0.037673644721508026
1620148747949456100,7.9264560546875,0.020320119336247444,-0.018059110268950462,0.024359935894608498
1620148747959460400,7.93646044921875,-0.011622633785009384,-0.07460174709558487,0.008284562267363071
1620148747969464300,7.94646435546875,-0.04406265541911125,-0.10105521976947784,0.001490873284637928
1620148747979469300,7.95646923828125,-0.05107502639293671,-0.14316831529140472,-0.008529003709554672
1620148747989474300,7.966474365234375,-0.051187943667173386,-0.16117633879184723,-0.0003304623533040285
1620148747999478300,7.976478271484375,-0.043186649680137634,-0.16913743317127228,0.010638613253831863
1620148748009482500,7.986482421875,-0.022572718560695648,-0.18942804634571075,0.016825668513774872
1620148748019486200,7.996486328125,-0.014400063082575798,-0.13383187353610992,0.019992075860500336
1620148748029490200,8.006490234375,-0.010695604607462883,-0.07050430029630661,0.011676621623337269
1620148748039495200,8.0164951171875,-0.003630794584751129,-0.020919010043144226,0.0007710305508226156
1620148748049499400,8.02649951171875,0.00006141187623143196,0.023908914998173714,-0.0018140997271984816
1620148748059503400,8.03650341796875,0.0006174496375024319,0.07589419931173325,-0.004088523797690868
1620148748069507300,8.04650732421875,-0.0003817684482783079,0.11131583899259567,-0.008927487768232822
1620148748079511300,8.05651123046875,0.003054323373362422,0.13810603320598602,-0.01301339827477932
1620148748089515300,8.066515380859375,0.003560323966667056,0.1322268396615982,-0.009216529317200184
1620148748099520300,8.076520263671876,0.0008917383383959532,0.09270557761192322,-0.013023972511291504
1620148748109524200,8.086524169921875,0.004997267387807369,0.054895877838134766,-0.012330485507845879
1620148748119528200,8.096528076171875,0.003602617187425494,0.0105236005038023,-0.012926671653985977
1620148748129532000,8.106531982421876,0.001221484737470746,-0.025173677131533623,-0.021775823086500168
1620148748139536000,8.116535888671875,0.0019663323182612658,-0.0461697056889534,-0.02114674262702465
1620148748149539800,8.126539794921875,0.003784205997362733,-0.05286143347620964,-0.018661480396986008
1620148748159544800,8.136544921875,0.003663019509986043,-0.044085316359996796,-0.0243252981454134
1620148748169548800,8.146548828125,0.0013649780303239822,-0.027228571474552155,-0.01717710867524147
1620148748179552800,8.156552734375,0.004619407467544079,-0.02520885318517685,-0.018777040764689445
1620148748189556700,8.166556640625,0.0050029028207063675,-0.018039356917142868,-0.02295713871717453
1620148748199561000,8.17656103515625,0.004314756020903587,0.002118441741913557,-0.017026470974087715
1620148748209565000,8.18656494140625,0.0020404162351042032,0.020284928381443024,-0.01368260569870472
1620148748219570000,8.19656982421875,0.00401642918586731,0.018780242651700974,-0.014282912015914917
1620148748229573600,8.20657373046875,0.0010416784789413214,0.02170892059803009,-0.01574578508734703
1620148748239577900,8.216577880859376,0.0022465314250439405,0.03147093951702118,-0.013001975603401661
1620148748249581800,8.226581787109374,0.00036953529343008995,0.0356220081448555,-0.011898361146450043
1620148748259585800,8.236585693359375,0.0002717464230954647,0.027585651725530624,-0.006399763748049736
1620148748269590800,8.2465908203125,-0.0019298888510093093,0.01577027142047882,-0.009714067913591862
1620148748279595000,8.256594970703125,0.0008096927776932716,-0.0024314369075000286,-0.014918492175638676
1620148748289599000,8.266598876953125,0.0005321914795786142,-0.016868965700268745,-0.0215886440128088
1620148748299602700,8.276602783203124,-0.002324797911569476,-0.029809264466166496,-0.02926543913781643
1620148748309607000,8.28660693359375,-0.004270236939191818,-0.03163938969373703,-0.03455634415149689
1620148748319611000,8.29661083984375,-0.0015935315750539303,-0.02937137335538864,-0.03744902461767197
1620148748329616000,8.306615966796874,-0.0019392098765820265,-0.021625570952892303,-0.04408375918865204
1620148748339619800,8.316619873046875,-0.0024497087579220533,-0.0176040418446064,-0.055158693343400955
1620148748349623800,8.326623779296876,-0.006142447702586651,0.004182480275630951,-0.0667240098118782
1620148748359627800,8.336627685546874,-0.01245260238647461,0.051925964653491974,-0.08007853478193283
1620148748369631700,8.3466318359375,-0.031204985454678535,0.1790865808725357,-0.10480678081512451
1620148748379635700,8.3566357421875,-0.05080797150731087,0.35694825649261475,-0.14833422005176544
1620148748389640700,8.366640625,-0.09123794734477997,0.6275792121887207,-0.21898840367794037
1620148748399645000,8.37664501953125,-0.1401466280221939,0.5295541286468506,-0.3038320541381836
1620148748409649000,8.38664892578125,-0.22454778850078583,-0.14879371225833893,-0.3270241916179657
1620148748419652900,8.39665283203125,-0.3784276247024536,-1.2496559619903564,-0.31529176235198975
1620148748429656800,8.40665673828125,-0.5421121120452881,-2.6706016063690186,-0.4529643952846527
1620148748439660800,8.416660888671874,-0.621441125869751,-3.788968086242676,-0.6664508581161499
1620148748449665800,8.426665771484375,-0.5726853013038635,-4.345989227294922,-1.008130431175232
1620148748459669800,8.436669677734375,-0.40155237913131714,-4.284908771514893,-1.4677881002426147
1620148748469674000,8.446674072265624,-0.15227943658828735,-3.6669118404388428,-1.8277063369750977
1620148748479678000,8.456677978515625,0.21747569739818573,-3.617292881011963,-2.4414000511169434
1620148748489681700,8.466681640625,0.6210058331489563,-3.421420097351074,-2.973879337310791
1620148748499686000,8.476685791015624,1.0488436222076416,-3.3483693599700928,-3.5054330825805664
1620148748509691000,8.48669091796875,1.4178147315979004,-3.2831742763519287,-3.9454972743988037
1620148748519694800,8.49669482421875,1.683964729309082,-3.1623873710632324,-4.231781005859375
1620148748529698800,8.50669873046875,1.8036680221557617,-2.909358263015747,-4.322659492492676
1620148748539702800,8.516702880859375,1.7604060173034668,-2.494281053543091,-4.229043483734131
1620148748549707000,8.52670703125,1.5855708122253418,-1.9367010593414307,-3.989760637283325
1620148748559710700,8.536710693359375,1.3187546730041504,-1.2709264755249023,-3.6289780139923096
1620148748569715700,8.5467158203125,1.0010215044021606,-0.5051510334014893,-3.181267738342285
1620148748579719700,8.5567197265625,0.691862940788269,0.2888021767139435,-2.669163703918457
1620148748589724000,8.566723876953125,0.4635341763496399,1.0602397918701172,-2.166810989379883
1620148748599727900,8.576727783203125,0.3499641716480255,1.7588717937469482,-1.7560803890228271
1620148748609731800,8.58673193359375,0.32892414927482605,2.332515239715576,-1.4732433557510376
1620148748619735800,8.59673583984375,0.34639793634414673,2.671738386154175,-1.3146066665649414
1620148748629740800,8.60674072265625,0.36622464656829834,2.743543863296509,-1.2562391757965088
1620148748639744800,8.616744873046875,0.3649657666683197,2.6283817291259766,-1.2842860221862793
1620148748649748700,8.626748779296875,0.3294762074947357,2.438385248184204,-1.368602991104126
1620148748659753000,8.6367529296875,0.2664954662322998,2.2238564491271973,-1.4965718984603882
1620148748669757000,8.6467568359375,0.16382023692131042,1.9954088926315308,-1.636533260345459
1620148748679761000,8.656760986328125,0.01629728637635708,1.7195053100585938,-1.7568674087524414
1620148748689766000,8.666765869140624,-0.1731083244085312,1.372673749923706,-1.8413742780685425
1620148748699769900,8.676769775390625,-0.38823339343070984,0.9825047254562378,-1.8749122619628906
1620148748709773800,8.68677392578125,-0.6163445711135864,0.6119101047515869,-1.8641904592514038
1620148748719777800,8.69677783203125,-0.8467022180557251,0.3221692740917206,-1.8210220336914062
1620148748729781800,8.70678173828125,-1.0794928073883057,0.16547791659832,-1.790781855583191
1620148748739786000,8.716785888671875,-1.3336067199707031,0.19654448330402374,-1.788964033126831
1620148748749791000,8.726791015625,-1.6128075122833252,0.42469242215156555,-1.8634567260742188
1620148748759794700,8.736794677734375,-1.9504940509796143,1.0085707902908325,-2.1065597534179688
1620148748769798700,8.746798583984376,-2.525980234146118,3.079576253890991,-3.075871467590332
1620148748779803000,8.756802978515625,-3.248870849609375,4.930995941162109,-3.9876561164855957
1620148748789806800,8.766806884765625,-3.8100643157958984,4.883730411529541,-4.076998710632324
1620148748799811800,8.776811767578126,-4.088208198547363,3.899611711502075,-3.822446584701538
1620148748809815800,8.78681591796875,-4.137216567993164,2.640343189239502,-3.4729843139648438
1620148748819820000,8.796820068359375,-4.010610103607178,1.4545992612838745,-3.1635286808013916
1620148748829823700,8.80682373046875,-3.7710227966308594,0.5662614703178406,-2.941901683807373
1620148748839827700,8.81682763671875,-3.4674863815307617,0.02879183366894722,-2.8219032287597656
1620148748849832000,8.82683203125,-3.1063907146453857,-0.2898857593536377,-2.791020631790161
1620148748859837000,8.8368369140625,-2.700140953063965,-0.5619441270828247,-2.8093149662017822
1620148748869841000,8.8468408203125,-2.3088066577911377,-0.8735427260398865,-2.845170736312866
1620148748879844900,8.856844970703126,-1.9823890924453735,-1.24160897731781,-2.8686470985412598
1620148748889848800,8.866848876953124,-1.7444473505020142,-1.663928508758545,-2.852750062942505
1620148748899852800,8.876852783203125,-1.589169979095459,-2.0757081508636475,-2.8229246139526367
1620148748909856800,8.886856689453126,-1.4790579080581665,-2.351072072982788,-2.819277763366699
1620148748919861800,8.89686181640625,-1.3781346082687378,-2.3276758193969727,-2.8564181327819824
1620148748929865700,8.90686572265625,-1.2782179117202759,-1.9440546035766602,-2.9189929962158203
1620148748939870000,8.916869873046876,-1.1800118684768677,-1.344484567642212,-2.9944136142730713
1620148748949874000,8.9268740234375,-1.1073744297027588,-0.8195797204971313,-3.07681941986084
1620148748959877600,8.936877685546875,-1.0655852556228638,-0.5889589786529541,-3.162299394607544
1620148748969881900,8.9468818359375,-1.0543084144592285,-0.6842412948608398,-3.2283427715301514
1620148748979886800,8.956886962890625,-1.0531080961227417,-1.0519673824310303,-3.2609429359436035
1620148748989890800,8.966890869140625,-1.055554747581482,-1.5108438730239868,-3.238116979598999
1620148748999894800,8.976894775390624,-1.0357210636138916,-1.8330135345458984,-3.16349196434021
1620148749009899000,8.98689892578125,-0.9511255621910095,-1.8688247203826904,-3.037682056427002
1620148749019903000,8.996903076171876,-0.7984188199043274,-1.6310548782348633,-2.8679494857788086
1620148749029908000,9.006907958984375,-0.5851715207099915,-1.16342294216156,-2.643664598464966
1620148749039911700,9.01691162109375,-0.31757014989852905,-0.561027467250824,-2.386188507080078
1620148749049916000,9.026916015625,-0.03131578117609024,0.038894008845090866,-2.1202709674835205
1620148749059920000,9.036919921875,0.24737176299095154,0.5382533669471741,-1.8592904806137085
1620148749069923800,9.046923828125,0.47426190972328186,0.9120807647705078,-1.6171878576278687
1620148749079927800,9.056927734375,0.6528034806251526,1.2408236265182495,-1.4200513362884521
1620148749089932800,9.066932861328125,0.7644863724708557,1.6012800931930542,-1.2433370351791382
1620148749099936800,9.076936767578125,0.7467552423477173,2.562943935394287,-1.3612595796585083
1620148749109940700,9.086940673828124,0.23985451459884644,4.471044063568115,-2.081305742263794
1620148749119944700,9.09694482421875,0.12056773900985718,2.2450764179229736,-0.35290488600730896
1620148749129949700,9.10694970703125,0.10625005513429642,2.020805597305298,0.7022387385368347
1620148749139954000,9.116953857421874,0.03325308486819267,1.4858555793762207,1.4349509477615356
1620148749149959000,9.126958984375,-0.24450182914733887,0.578282356262207,2.0357589721679688
1620148749159963000,9.136962890625,-0.7477385997772217,-0.5604332089424133,2.5324532985687256
1620148749169966600,9.146966552734375,-1.4943933486938477,-1.004281997680664,2.7232773303985596
1620148749179970800,9.156970703125,-2.5034470558166504,0.4725593030452728,2.188779592514038
1620148749189974800,9.166974853515624,-3.2215230464935303,1.865309715270996,1.6357066631317139
1620148749199978800,9.176978759765625,-3.2428300380706787,1.882332682609558,1.4684810638427734
1620148749209983700,9.186983642578125,-2.7626287937164307,2.215198516845703,1.0991206169128418
1620148749219988000,9.196988037109374,-1.8694583177566528,2.794796943664551,0.560484766960144
1620148749229991700,9.20699169921875,-0.7030596137046814,3.109485626220703,0.060220614075660706
1620148749239995600,9.21699560546875,0.40070196986198425,3.0005085468292236,-0.3080123960971832
1620148749250000000,9.226999755859374,1.1409687995910645,2.7083020210266113,-0.5169891119003296
1620148749260003800,9.23700390625,1.422149658203125,2.589118242263794,-0.5557677149772644
1620148749270008800,9.2470087890625,1.4168896675109863,2.677976608276367,-0.44222888350486755
1620148749280012800,9.2570126953125,1.2956010103225708,2.7354135513305664,-0.19935356080532074
1620148749290016800,9.267016845703125,1.1679983139038086,2.6546781063079834,0.1255510151386261
1620148749300020700,9.277020751953126,1.1007641553878784,2.3812758922576904,0.4230847954750061
1620148749310024700,9.287024658203125,1.1121898889541626,1.9479999542236328,0.6202060580253601
1620148749320029700,9.29702978515625,1.1968883275985718,1.442491054534912,0.6737717390060425
1620148749330033700,9.30703369140625,1.3280441761016846,0.8507103323936462,0.5918664932250977
1620148749340038000,9.317037841796875,1.4512385129928589,0.12715598940849304,0.4580793082714081
1620148749350041900,9.327041748046875,1.547598958015442,-0.6099015474319458,0.3209443688392639
1620148749360045600,9.337045654296874,1.5851314067840576,-1.1937189102172852,0.19471292197704315
1620148749370049800,9.3470498046875,1.5281914472579956,-1.535588026046753,0.07361579686403275
1620148749380054800,9.3570546875,1.3596985340118408,-1.6092513799667358,-0.05959060415625572
1620148749390058800,9.367058837890625,1.1222593784332275,-1.4892714023590088,-0.1946999579668045
1620148749400062700,9.377062744140625,0.8867262005805969,-1.3100721836090088,-0.31511181592941284
1620148749410067000,9.38706689453125,0.75947505235672,-1.0999388694763184,-0.4243304431438446
1620148749420071000,9.39707080078125,0.7783132195472717,-0.8711155652999878,-0.5167697072029114
1620148749430074600,9.40707470703125,0.9324713945388794,-0.6129077672958374,-0.5912423133850098
1620148749440079600,9.41707958984375,1.1913145780563354,-0.32043731212615967,-0.6468290090560913
1620148749450083800,9.427083740234375,1.4927446842193604,-0.01654748059809208,-0.6902744770050049
1620148749460087800,9.437087890625,1.8019614219665527,0.2742125689983368,-0.7058357000350952
1620148749470091800,9.447091796875,2.0811679363250732,0.5249883532524109,-0.6966845393180847
1620148749480095700,9.457095703125,2.299978733062744,0.7134867310523987,-0.6508385539054871
1620148749490100700,9.467100830078126,2.4372475147247314,0.8300530314445496,-0.5612394213676453
1620148749500105000,9.47710498046875,2.4988436698913574,0.8564625382423401,-0.43286797404289246
1620148749510108700,9.487108642578125,2.4989142417907715,0.816938579082489,-0.27844324707984924
1620148749520112600,9.497112548828126,2.4442009925842285,0.7410563230514526,-0.10491745918989182
1620148749530116900,9.507116943359375,2.3582074642181396,0.655706524848938,0.06439833343029022
1620148749540120800,9.517120849609375,2.2434704303741455,0.5927900671958923,0.21117937564849854
1620148749550125800,9.527125732421876,2.0834457874298096,0.6000946164131165,0.3432295620441437
1620148749560129800,9.5371298828125,1.8439821004867554,0.7364948987960815,0.45150837302207947
1620148749570133800,9.5471337890625,1.5404033660888672,1.0863471031188965,0.5270292162895203
1620148749580137700,9.5571376953125,1.1907901763916016,1.7166142463684082,0.5489708781242371
1620148749590141700,9.5671416015625,0.8803585767745972,2.523484706878662,0.49840033054351807
1620148749600146000,9.57714599609375,0.674526572227478,3.1730294227600098,0.3734663426876068
1620148749610151000,9.58715087890625,0.5893773436546326,3.419703722000122,0.23979401588439941
1620148749620155000,9.59715478515625,0.5959010124206543,3.304720163345337,0.11213866621255875
1620148749630158800,9.607158935546876,0.6575481295585632,2.9340765476226807,-0.01050789188593626
1620148749640162800,9.617162841796874,0.7294540405273438,2.3959052562713623,-0.11391374468803406
1620148749650166800,9.627166748046875,0.7923522591590881,1.8003430366516113,-0.18972381949424744
1620148749660170800,9.637170654296876,0.846991240978241,1.2292426824569702,-0.24876704812049866
1620148749670175700,9.64717578125,0.9039589166641235,0.7401720881462097,-0.29841503500938416
1620148749680179700,9.6571796875,0.9650859832763672,0.32911014556884766,-0.3536945581436157
1620148749690184000,9.667183837890626,1.0368099212646484,0.02308177761733532,-0.41247424483299255
1620148749700187600,9.677187744140625,1.1155428886413574,-0.19238868355751038,-0.4615069329738617
1620148749710191600,9.687191650390625,1.1817727088928223,-0.3385277986526489,-0.4977016746997833
1620148749720195800,9.69719580078125,1.2404067516326904,-0.4289427399635315,-0.5276361107826233
1620148749730200800,9.707200927734375,1.2922472953796387,-0.4650599956512451,-0.5427948236465454
1620148749740204800,9.717204833984376,1.3448013067245483,-0.44967615604400635,-0.5628303289413452
1620148749750208800,9.727208740234374,1.3783342838287354,-0.404651403427124,-0.5653659105300903
1620148749760213000,9.737212890625,1.3799148797988892,-0.33778655529022217,-0.5570195913314819
1620148749770216700,9.747216796875,1.3603694438934326,-0.25469672679901123,-0.5383758544921875
1620148749780221700,9.7572216796875,1.3192888498306274,-0.14896512031555176,-0.5209822058677673
1620148749790225700,9.7672255859375,1.2633352279663086,0.0049237702041864395,-0.48884209990501404
1620148749800230000,9.77722998046875,1.1777527332305908,0.18179181218147278,-0.4463496804237366
1620148749810233900,9.78723388671875,1.058663010597229,0.3961848318576813,-0.39202919602394104
1620148749820237800,9.79723779296875,0.9284567832946777,0.640781819820404,-0.3306829333305359
1620148749830241800,9.80724169921875,0.7808332443237305,0.9004645347595215,-0.24141085147857666
1620148749840246800,9.817246826171875,0.6276735663414001,1.178954005241394,-0.11659660935401917
1620148749850250800,9.827250732421875,0.485052227973938,1.4697080850601196,0.022870739921927452
1620148749860254700,9.837254638671874,0.35740289092063904,1.7426992654800415,0.17576372623443604
1620148749870258700,9.8472587890625,0.25127139687538147,1.9614022970199585,0.32304397225379944
1620148749880263000,9.857262939453125,0.1800185739994049,2.1139023303985596,0.44330671429634094
1620148749890267000,9.867266845703124,0.1426064819097519,2.2054646015167236,0.5266415476799011
1620148749900271900,9.87727197265625,0.13358797132968903,2.2251789569854736,0.586023211479187
1620148749910275600,9.887275634765626,0.14563025534152985,2.181274652481079,0.6012423634529114
1620148749920279800,9.89727978515625,0.1880314201116562,2.068938732147217,0.5749959349632263
1620148749930283800,9.90728369140625,0.2680972218513489,1.9155759811401367,0.5189278721809387
1620148749940287700,9.917287841796876,0.37206923961639404,1.7224847078323364,0.4387771487236023
1620148749950292000,9.9272919921875,0.5036863684654236,1.5039161443710327,0.35510677099227905
1620148749960297000,9.937296875,0.6492763757705688,1.2633728981018066,0.2677842378616333
1620148749970300700,9.94730078125,0.8079512119293213,1.0344982147216797,0.18507817387580872
1620148749980304600,9.9573046875,0.9803685545921326,0.807420015335083,0.11381424218416214
1620148749990308900,9.967308837890625,1.1579550504684448,0.5802994966506958,0.059756066650152206
1620148750000312800,9.977312744140624,1.3282101154327393,0.34621742367744446,0.017486928030848503
1620148750010317800,9.98731787109375,1.4719645977020264,0.09025249630212784,-0.020877504721283913
1620148750020321800,9.99732177734375,1.5838956832885742,-0.442804753780365,-0.16548851132392883
1620148750030326000,10.007325927734374,1.6504513025283813,-2.229302406311035,-0.6932783126831055
1620148750040329700,10.017329833984375,1.6211836338043213,-3.5136752128601074,-1.029257893562317
1620148750050333700,10.027333740234376,1.5799156427383423,-3.669159412384033,-0.998813807964325
1620148750060337700,10.037337646484374,1.4761625528335571,-3.4298157691955566,-0.833037793636322
1620148750070342700,10.0473427734375,1.2635115385055542,-3.1741132736206055,-0.6704645752906799
1620148750080347000,10.057346923828124,0.9831776022911072,-2.9098103046417236,-0.5120905637741089
1620148750090350800,10.067350830078125,0.6499213576316833,-2.6390273571014404,-0.3815552294254303
1620148750100354600,10.0773544921875,0.2943589687347412,-2.373793125152588,-0.27597346901893616
1620148750110358800,10.08735888671875,-0.06672599166631699,-2.1145997047424316,-0.21094416081905365
1620148750120362800,10.09736279296875,-0.4244023263454437,-1.8568726778030396,-0.19079339504241943
1620148750130367000,10.107366943359375,-0.7787361741065979,-1.587213158607483,-0.2207195907831192
1620148750140371000,10.117370849609374,-1.1264166831970215,-1.3059393167495728,-0.30211910605430603
1620148750150375000,10.127375,-1.455438494682312,-0.9829740524291992,-0.4483327567577362
1620148750160379000,10.13737890625,-1.7523354291915894,-0.5850452184677124,-0.6591196656227112
1620148750170383000,10.147383056640624,-2.000265598297119,-0.16963626444339752,-0.8747749924659729
1620148750180387000,10.157386962890625,-2.1979823112487793,0.19903507828712463,-1.0009405612945557
1620148750190392000,10.16739208984375,-2.357379198074341,0.4842205047607422,-1.0430994033813477
1620148750200396000,10.17739599609375,-2.475024461746216,0.7245451211929321,-1.0347329378128052
1620148750210399700,10.187399658203125,-2.5543875694274902,0.901935338973999,-0.9778621792793274
1620148750220404000,10.197404052734376,-2.602383613586426,0.9867912530899048,-0.8918348550796509
1620148750230408000,10.207407958984374,-2.609799861907959,0.9799357652664185,-0.7938235998153687
1620148750240413000,10.217412841796875,-2.5744290351867676,0.8477703332901001,-0.6883082389831543
1620148750250417000,10.2274169921875,-2.5139718055725098,0.5386695265769958,-0.5868306159973145
1620148750260421000,10.237421142578125,-2.4366672039031982,0.0652581974864006,-0.4842219948768616
1620148750270424800,10.2474248046875,-2.356837749481201,-0.5296677947044373,-0.37565478682518005
1620148750280428800,10.2574287109375,-2.263471841812134,-1.1873061656951904,-0.24080480635166168
1620148750290433000,10.26743310546875,-2.147900342941284,-1.8379778861999512,-0.08804509788751602
1620148750300438000,10.27743798828125,-1.9973020553588867,-2.4351744651794434,0.08212399482727051
1620148750310442000,10.28744189453125,-1.8185306787490845,-2.928380250930786,0.2471126914024353
1620148750320446000,10.297446044921875,-1.6087076663970947,-3.249861478805542,0.40179237723350525
1620148750330450200,10.3074501953125,-1.3756844997406006,-3.3717041015625,0.5207579731941223
1620148750340454000,10.317453857421874,-1.1347166299819946,-3.318345308303833,0.5994701385498047
1620148750350457900,10.327457763671875,-0.910973846912384,-3.1520893573760986,0.6360251903533936
1620148750360462800,10.337462890625,-0.7144352197647095,-2.910404682159424,0.640031635761261
1620148750370467000,10.347467041015625,-0.5566096305847168,-2.6544013023376465,0.6028927564620972
1620148750380471000,10.357470947265625,-0.4357479214668274,-2.4042530059814453,0.5387046337127686
1620148750390475000,10.36747509765625,-0.3606206774711609,-2.162928581237793,0.46970266103744507
1620148750400478700,10.377478759765625,-0.3131195306777954,-1.9395456314086914,0.3955237567424774
1620148750410483000,10.38748291015625,-0.29297006130218506,-1.7266080379486084,0.327970027923584
1620148750420488000,10.397488037109374,-0.2864294946193695,-1.5149847269058228,0.278764009475708
1620148750430492000,10.407491943359375,-0.28491973876953125,-1.3372712135314941,0.2473006397485733
1620148750440495900,10.417495849609375,-0.28091707825660706,-1.1903654336929321,0.24736995995044708
1620148750450500000,10.4275,-0.26189225912094116,-1.0756772756576538,0.27040284872055054
1620148750460504000,10.437504150390625,-0.21785177290439606,-0.9680963754653931,0.31213483214378357
1620148750470507800,10.4475078125,-0.15888673067092896,-0.8681522011756897,0.3691304624080658
1620148750480512800,10.4575126953125,-0.0776163786649704,-0.7615715265274048,0.43214330077171326
1620148750490517000,10.46751708984375,0.02219117246568203,-0.6645954251289368,0.49000340700149536
1620148750500521000,10.47752099609375,0.13666363060474396,-0.5854867696762085,0.5431814193725586
1620148750510525000,10.48752490234375,0.2611331343650818,-0.5197197198867798,0.5860303044319153
1620148750520529200,10.497529052734375,0.3997432589530945,-0.5007218718528748,0.6096376776695251
1620148750530532900,10.507532958984376,0.5408052802085876,-0.5384679436683655,0.392734169960022
1620148750540538000,10.5175380859375,0.6304011940956116,-0.7601915597915649,-0.5639464259147644
1620148750550541800,10.527541748046875,0.6796718239784241,-1.2171077728271484,-1.1177315711975098
1620148750560546000,10.537546142578124,0.757533609867096,-1.5898536443710327,-1.1381702423095703
1620148750570550000,10.547550048828125,0.8653226494789124,-1.8726229667663574,-0.9071400761604309
1620148750580554000,10.557553955078125,0.9517192244529724,-2.0418879985809326,-0.557090699672699
1620148750590558000,10.567557861328124,0.9576367735862732,-2.0709235668182373,-0.19326269626617432
1620148750600563000,10.57756298828125,0.8578482270240784,-1.994834065437317,0.12588612735271454
1620148750610567000,10.58756689453125,0.6579009890556335,-1.9110337495803833,0.410094678401947
1620148750620571000,10.59757080078125,0.4092632234096527,-1.902809977531433,0.6880147457122803
1620148750630574800,10.607574951171875,0.12582191824913025,-1.957535982131958,0.9462335109710693
1620148750640579000,10.6175791015625,-0.19408608973026276,-2.0375020503997803,1.1597466468811035
1620148750650584000,10.627583984375,-0.520782470703125,-2.141965389251709,1.317602276802063
1620148750660588000,10.637588134765625,-0.8305529952049255,-2.3417415618896484,1.414259910583496
1620148750670592000,10.647592041015624,-1.079430341720581,-2.641845703125,1.443717122077942
1620148750680596000,10.657595947265625,-1.2100605964660645,-2.9566659927368164,1.4143109321594238
1620148750690600000,10.667599853515625,-1.1956775188446045,-3.248694658279419,1.358189344406128
1620148750700604000,10.67760400390625,-1.0173641443252563,-3.422287940979004,1.2720861434936523
1620148750710609000,10.68760888671875,-0.6870384812355042,-3.383328437805176,1.1421114206314087
1620148750720613000,10.697613037109376,-0.25269055366516113,-2.960167407989502,0.9312424063682556
1620148750730617000,10.7076171875,0.2194964438676834,-1.9525682926177979,0.5813302397727966
1620148750740620800,10.717620849609375,0.6247068643569946,-0.3526180684566498,0.08206972479820251
1620148750750624800,10.727624755859376,0.8723185658454895,1.4598782062530518,-0.4017113149166107
1620148750760629000,10.73762890625,0.962334930896759,2.7761666774749756,-0.690028727054596
1620148750770634000,10.747634033203125,0.9570608139038086,3.3551251888275146,-0.7545395493507385
1620148750780638000,10.757637939453126,0.922961413860321,3.4286913871765137,-0.6711981892585754
1620148750790642000,10.767641845703125,0.9775607585906982,3.2114484310150146,-0.6482457518577576
1620148750800646100,10.777646240234375,1.2638702392578125,2.4518163204193115,-0.9969066977500916
1620148750810649900,10.78764990234375,1.6569267511367798,1.1556999683380127,-1.5524139404296875
1620148750820653800,10.79765380859375,1.8705713748931885,0.008015722967684269,-1.6146996021270752
1620148750830658800,10.807658935546876,1.8089929819107056,-0.8588786125183105,-1.1459100246429443
1620148750840663000,10.8176630859375,1.6545863151550293,-1.4289624691009521,-0.6776164770126343
1620148750850667000,10.8276669921875,1.5446829795837402,-1.7621995210647583,-0.40162190794944763
1620148750860671000,10.8376708984375,1.4587318897247314,-2.0257811546325684,-0.2631974220275879
1620148750870675000,10.847675048828124,1.3759886026382446,-2.224294900894165,-0.1785656213760376
1620148750880679000,10.857678955078125,1.288716197013855,-2.4199633598327637,-0.0981871634721756
1620148750890684000,10.867683837890626,1.1741547584533691,-2.6030592918395996,-0.0005106735043227673
1620148750900688000,10.87768798828125,1.030922532081604,-2.6806554794311523,0.11087754368782043
1620148750910692000,10.887692138671875,0.8937203884124756,-2.705939531326294,0.20064978301525116
1620148750920696000,10.897696044921876,0.7861170172691345,-2.709604501724243,0.27134469151496887
1620148750930700000,10.907699951171875,0.6935900449752808,-2.6852571964263916,0.3162898123264313
1620148750940703700,10.917703857421875,0.6049336791038513,-2.669419288635254,0.32841023802757263
1620148750950709000,10.927708984375,0.5336610674858093,-2.5728306770324707,0.30519306659698486
1620148750960713000,10.937712890625,0.5011888742446899,-2.3664300441741943,0.2881472706794739
1620148750970717000,10.947717041015625,0.49281007051467896,-2.066070318222046,0.28273144364356995
1620148750980721000,10.957720947265624,0.5135374069213867,-1.7120896577835083,0.2831290364265442
1620148750990725000,10.96772509765625,0.559457540512085,-1.349301815032959,0.29180988669395447
1620148751000730000,10.977730224609376,0.6239550113677979,-1.0123687982559204,0.3112456798553467
1620148751010733800,10.98773388671875,0.6774480938911438,-0.72944176197052,0.32884493470191956
1620148751020737800,10.99773779296875,0.7184679508209229,-0.5328690409660339,0.3449457883834839
1620148751030742000,11.007741943359376,0.7266268134117126,-0.4538972079753876,0.3457183837890625
1620148751040746000,11.01774609375,0.7048298120498657,-0.4809051752090454,0.3524128794670105
1620148751050750000,11.02775,0.6516773700714111,-0.5739898681640625,0.3618631064891815
1620148751060755000,11.0377548828125,0.5907344818115234,-0.6949609518051147,0.3964498043060303
1620148751070759200,11.04775927734375,0.5285736322402954,-0.799907386302948,0.4569648206233978
1620148751080763000,11.057762939453125,0.47942882776260376,-0.8827933073043823,0.540863573551178
1620148751090766800,11.067766845703124,0.45618367195129395,-0.930485188961029,0.642416775226593
1620148751100771000,11.07777099609375,0.44528675079345703,-0.954544186592102,0.7464534044265747
1620148751110775000,11.087775146484375,0.4477517902851105,-0.96987384557724,0.8517076969146729
1620148751120780000,11.097780029296874,0.4603799283504486,-0.9814194440841675,0.9548011422157288
1620148751130783700,11.10778369140625,0.4743487536907196,-1.0043601989746094,1.049370527267456
1620148751140787700,11.11778759765625,0.4936518669128418,-1.0361460447311401,1.1218178272247314
1620148751150791700,11.127791748046874,0.53345787525177,-1.0917209386825562,1.180483341217041
1620148751160795600,11.137795654296875,0.5970584154129028,-1.1709814071655273,1.2137550115585327
1620148751170799600,11.147799560546876,0.7019627094268799,-1.2841806411743164,1.213832139968872
1620148751180804600,11.1578046875,0.8424116969108582,-1.457605004310608,1.1717661619186401
1620148751190808800,11.167808837890625,1.0235189199447632,-1.8258682489395142,1.0427027940750122
1620148751200812800,11.177812744140626,1.3457413911819458,-3.0066702365875244,0.4482036530971527
1620148751210816500,11.18781640625,1.7171956300735474,-4.243001937866211,-0.2034420520067215
1620148751220820700,11.19782080078125,1.9567294120788574,-4.667590141296387,-0.3272412419319153
1620148751230824700,11.20782470703125,2.0675015449523926,-4.66580057144165,-0.20956866443157196
1620148751240829700,11.21782958984375,2.100297689437866,-4.470400810241699,-0.027812357991933823
1620148751250833700,11.227833740234376,2.0745556354522705,-4.1409912109375,0.16615526378154755
1620148751260838000,11.237837890625,1.9885660409927368,-3.6974029541015625,0.3495124280452728
1620148751270841600,11.247841552734375,1.8407717943191528,-3.1446783542633057,0.5020995736122131
1620148751280845600,11.257845458984375,1.6227480173110962,-2.5126566886901855,0.606927752494812
1620148751290850600,11.2678505859375,1.348392128944397,-1.8384801149368286,0.6692611575126648
1620148751300854800,11.277854736328125,1.0342695713043213,-1.1603213548660278,0.6845679879188538
1620148751310858800,11.287858642578126,0.6947895288467407,-0.5016552805900574,0.6693525314331055
1620148751320862700,11.29786279296875,0.3497091233730316,0.10750161111354828,0.61444091796875
1620148751330866700,11.30786669921875,0.02797050215303898,0.6281088590621948,0.5132612586021423
1620148751340870700,11.31787060546875,-0.24110382795333862,1.0392707586288452,0.3958756625652313
1620148751350875600,11.327875732421875,-0.4497198760509491,1.3549922704696655,0.2702506482601166
1620148751360879600,11.337879638671875,-0.6113863587379456,1.5740165710449219,0.13629719614982605
1620148751370883600,11.347883544921874,-0.7267781496047974,1.7127907276153564,-0.010857639834284782
1620148751380887800,11.3578876953125,-0.8054215312004089,1.7420750856399536,-0.1847224235534668
1620148751390891800,11.367891845703125,-0.8611004948616028,1.7089643478393555,-0.382934033870697
1620148751400895500,11.3778955078125,-0.9106297492980957,1.6465697288513184,-0.594419538974762
1620148751410900500,11.387900390625,-0.9639262557029724,1.553663730621338,-0.822610080242157
1620148751420904700,11.39790478515625,-1.0230857133865356,1.4288139343261719,-1.0580451488494873
1620148751430908700,11.40790869140625,-1.080351710319519,1.2955762147903442,-1.2838447093963623
1620148751440912600,11.41791259765625,-1.1280581951141357,1.1713162660598755,-1.4744552373886108
1620148751450916900,11.427916748046876,-1.1581794023513794,1.0992887020111084,-1.5781850814819336
1620148751460920800,11.4379208984375,-1.1632729768753052,1.0358715057373047,-1.5834978818893433
1620148751470925800,11.44792578125,-1.1382994651794434,0.9481056332588196,-1.5226929187774658
1620148751480929500,11.457929443359374,-1.0881491899490356,0.8111583590507507,-1.4475998878479004
1620148751490933800,11.467933837890625,-1.0333471298217773,0.5918400883674622,-1.372359275817871
1620148751500937700,11.477937744140625,-0.9916591048240662,0.2917625308036804,-1.3029882907867432
1620148751510941700,11.487941650390624,-0.9687409996986389,-0.11423368752002716,-1.2334494590759277
1620148751520945700,11.497945556640625,-0.9896173477172852,-0.5954691767692566,-1.1539705991744995
1620148751530951000,11.507950927734376,-1.0604302883148193,-1.0950340032577515,-1.0519435405731201
1620148751540954600,11.51795458984375,-1.1639875173568726,-1.6232789754867554,-0.9084733128547668
1620148751550958600,11.52795849609375,-1.3187024593353271,-2.1672918796539307,-0.744905412197113
1620148751560962600,11.537962646484376,-1.4971339702606201,-2.666330575942993,-0.5863674283027649
1620148751570966800,11.547966796875,-1.6857385635375977,-3.1326873302459717,-0.4452500343322754
1620148751580970800,11.557970703125,-1.861094355583191,-3.514110803604126,-0.32258567214012146
1620148751590975700,11.567975830078124,-2.006032943725586,-3.7982218265533447,-0.21314199268817902
1620148751600979700,11.577979736328125,-2.0926425457000732,-3.926947593688965,-0.12572892010211945
1620148751610983700,11.587983642578125,-2.092772960662842,-3.87199330329895,-0.035424333065748215
1620148751620987600,11.597987548828126,-1.9912617206573486,-3.6654434204101562,0.05031497776508331
1620148751630991600,11.60799169921875,-1.7749416828155518,-3.3256630897521973,0.14452217519283295
1620148751640995800,11.617995849609375,-1.4756172895431519,-2.8818283081054688,0.2471148520708084
1620148751651000800,11.628000732421874,-1.1227678060531616,-2.3951117992401123,0.35631322860717773
1620148751661004800,11.6380048828125,-0.7509413361549377,-1.9070031642913818,0.4560042917728424
1620148751671008500,11.648008544921876,-0.42145800590515137,-1.4801645278930664,0.5577365756034851
1620148751681012700,11.6580126953125,-0.1789313405752182,-1.2279280424118042,0.6549444198608398
1620148751691016700,11.6680166015625,-0.008234691806137562,-1.1678478717803955,0.7419703602790833
1620148751701020700,11.678020751953126,0.11900241672992706,-1.2850724458694458,0.8237876296043396
1620148751711025700,11.688025634765625,0.23684808611869812,-1.5400384664535522,0.8908681273460388
1620148751721029600,11.698029541015625,0.36141443252563477,-1.8816412687301636,0.9382938146591187
1620148751731033900,11.708033935546876,0.5028701424598694,-2.2257258892059326,0.9557753205299377
1620148751741037600,11.71803759765625,0.6535057425498962,-2.504204750061035,0.9405559301376343
1620148751751041500,11.72804150390625,0.8077368140220642,-2.6666975021362305,0.910692036151886
1620148751761045800,11.738045654296876,0.9514309167861938,-2.649883508682251,0.8723872900009155
1620148751771050800,11.74805078125,1.084283471107483,-2.2821555137634277,0.7538957595825195
1620148751781054700,11.7580546875,1.1573659181594849,-0.9114958643913269,0.13557595014572144
1620148751791058700,11.76805859375,1.1304941177368164,0.42865070700645447,-0.4627324938774109
1620148751801063000,11.77806298828125,1.0412636995315552,0.863724946975708,-0.5374370217323303
1620148751811066600,11.788066650390626,0.9305334091186523,0.7081255316734314,-0.2793559730052948
1620148751821070600,11.798070556640624,0.7907533645629883,0.1410469114780426,0.17422877252101898
1620148751831075600,11.80807568359375,0.6441575288772583,-0.6586936712265015,0.672400176525116
1620148751841079800,11.818079833984376,0.456164687871933,-1.4763985872268677,1.1061108112335205
1620148751851083800,11.828083740234375,0.2263122946023941,-2.19742751121521,1.4355406761169434
1620148751861087700,11.838087646484375,-0.042385198175907135,-2.751729726791382,1.6395986080169678
1620148751871091700,11.848091796875,-0.322311133146286,-2.979310989379883,1.6996285915374756
1620148751881095700,11.858095703125,-0.5717512965202332,-2.6613552570343018,1.533119797706604
1620148751891100700,11.8681005859375,-0.7226724028587341,-1.666682243347168,1.0395156145095825
1620148751901104600,11.878104736328124,-0.7380446791648865,-0.829744815826416,0.553499698638916
1620148751911108600,11.888108642578125,-0.6893042922019958,-0.4721139967441559,0.27672725915908813
1620148751921112800,11.89811279296875,-0.6431333422660828,-0.5822966694831848,0.21654483675956726
1620148751931116800,11.90811669921875,-0.6327616572380066,-0.9250159859657288,0.31700193881988525
1620148751941120500,11.91812060546875,-0.6666021943092346,-1.1978020668029785,0.48517388105392456
1620148751951125500,11.92812548828125,-0.7852993011474609,-1.0719327926635742,0.6317542791366577
1620148751961129700,11.938129638671874,-1.0307910442352295,-0.3486741781234741,0.6800757050514221
1620148751971133700,11.9481337890625,-1.3832870721817017,0.6741453409194946,0.6800805330276489
1620148751981137700,11.9581376953125,-1.7055375576019287,1.2999998331069946,0.8093003630638123
1620148751991142000,11.968141845703125,-1.963841199874878,1.368638277053833,1.0604941844940186
1620148752001147000,11.97814697265625,-2.162283420562744,1.1096134185791016,1.344935655593872
1620148752011150600,11.988150634765624,-2.3520073890686035,0.9645372033119202,1.5555802583694458
1620148752021154600,11.998154541015625,-2.528257131576538,1.1957473754882812,1.5992993116378784
1620148752031158800,12.00815869140625,-2.5647637844085693,1.48850679397583,1.484179139137268
1620148752041162800,12.018162841796874,-2.3338587284088135,1.3203718662261963,1.3380540609359741
1620148752051166700,12.028166748046875,-1.9124971628189087,0.6692467331886292,1.1916923522949219
1620148752061171700,12.038171630859376,-1.4546762704849243,-0.2511419951915741,1.0440081357955933
1620148752071176000,12.048176025390624,-1.0926510095596313,-1.2306499481201172,0.9049112200737
1620148752081179600,12.0581796875,-0.8755210638046265,-2.2010984420776367,0.805866539478302
1620148752091183600,12.06818359375,-0.8120169043540955,-3.0546796321868896,0.7224403619766235
1620148752101187600,12.0781875,-0.8697015047073364,-3.6800990104675293,0.6348503232002258
1620148752111191800,12.08819189453125,-1.0036119222640991,-3.9994571208953857,0.5177899599075317
1620148752121196800,12.09819677734375,-1.1736589670181274,-3.9494423866271973,0.3531108796596527
1620148752131201000,12.108200927734375,-1.3209882974624634,-3.5535125732421875,0.16243305802345276
1620148752141205000,12.118205078125,-1.4202728271484375,-3.021728754043579,0.04141443595290184
1620148752151209000,12.128208984375,-1.4504823684692383,-2.4896109104156494,0.05015626177191734
1620148752161213000,12.138212890625,-1.4227190017700195,-2.001882791519165,0.17413659393787384
1620148752171217000,12.148216796875,-1.3588734865188599,-1.6148459911346436,0.40887588262557983
1620148752181222000,12.158221923828124,-1.2959699630737305,-1.2756431102752686,0.7052797675132751
1620148752191226000,12.16822607421875,-1.2533096075057983,-0.9014630913734436,1.0212172269821167
1620148752201230000,12.17822998046875,-1.2221883535385132,-0.45692211389541626,1.3339122533798218
1620148752211233800,12.18823388671875,-1.1759065389633179,0.08481068164110184,1.6226098537445068
1620148752221238000,12.198238037109375,-1.0865155458450317,0.6391540169715881,1.8918474912643433
1620148752231242000,12.208241943359376,-0.9717535376548767,1.1505475044250488,2.1395251750946045
1620148752241247000,12.2182470703125,-0.8353917598724365,1.6377638578414917,2.332075595855713
1620148752251251000,12.2282509765625,-0.6583250761032104,2.0974040031433105,2.449244499206543
1620148752261255000,12.2382548828125,-0.39045846462249756,2.444059133529663,2.516568183898926
1620148752271259100,12.248259033203125,0.015842191874980927,2.5648813247680664,2.56984281539917
1620148752281262800,12.258262939453125,0.5622903108596802,2.4079275131225586,2.614285707473755
1620148752291266800,12.268266845703126,1.1966302394866943,2.0597944259643555,2.646794557571411
1620148752301271800,12.278271728515625,1.8460633754730225,1.6321293115615845,2.649182081222534
1620148752311276000,12.288276123046876,2.4278409481048584,1.1740906238555908,2.6756865978240967
1620148752321280000,12.298280029296874,2.912200689315796,0.7842190265655518,2.7611353397369385
1620148752331284000,12.308283935546875,3.3039064407348633,0.5747725963592529,2.882324695587158
1620148752341288000,12.318287841796876,3.6108810901641846,0.5637065768241882,2.995251417160034
1620148752351292000,12.3282919921875,3.799431800842285,0.6248966455459595,3.128453493118286
1620148752361297000,12.338296875,3.8586223125457764,0.6588423848152161,3.3052079677581787
1620148752371300900,12.34830078125,3.8009140491485596,0.5374208688735962,3.5470566749572754
1620148752381305000,12.35830517578125,3.570784568786621,0.10065160691738129,3.814401626586914
1620148752391309000,12.36830908203125,3.1640498638153076,-0.727767825126648,4.084741115570068
1620148752401313000,12.37831298828125,2.6629626750946045,-1.9291538000106812,4.266635417938232
1620148752411317000,12.38831689453125,2.1822125911712646,-3.1412479877471924,4.235334873199463
1620148752421322000,12.398322021484375,1.806111216545105,-4.0001420974731445,3.9301416873931885
1620148752431326000,12.408325927734374,1.4964488744735718,-4.34652042388916,3.2717976570129395
1620148752441330000,12.418329833984375,1.225422978401184,-3.9991886615753174,2.2338502407073975
1620148752451334000,12.428333984375,0.9700636267662048,-3.178075075149536,1.0907886028289795
1620148752461338000,12.438338134765624,0.6573981642723083,-2.1540865898132324,0.30430302023887634
1620148752471341800,12.448341796875,0.9142435789108276,8.3977689743042,5.339433670043945
1620148752481346800,12.458346923828126,1.0137525796890259,11.631694793701172,8.347119331359863
1620148752491350800,12.468350830078125,0.3701152801513672,6.833871841430664,7.266618728637695
1620148752501355000,12.47835498046875,-0.278310626745224,2.136284828186035,6.054711818695068
1620148752511359000,12.48835888671875,-0.8487514853477478,-1.499768853187561,4.809370040893555
1620148752521363000,12.498363037109375,-1.184748888015747,-3.8339686393737793,3.6185362339019775
1620148752531367200,12.5083671875,-1.2665127515792847,-5.065506935119629,2.607832670211792
1620148752541372200,12.5183720703125,-1.1557397842407227,-5.452103614807129,1.7517160177230835
1620148752551376000,12.5283759765625,-0.9093585014343262,-5.218939304351807,1.0574219226837158
